NodeID,Accel_X,Accel_Y,Accel_Z,Gyro_X,Gyro_Y,Gyro_Z,Timestamp
r6,8413.0,-0.018433,0.123291,2.746582,0.732422,-0.671387,2026-04-20T14:57:29.654797+00:00
r6,-0.997437,-0.019287,0.124268,2.807617,0.610352,-0.732422,2026-04-20T14:57:29.655442+00:00
r6,-0.997192,-0.020874,0.124878,2.746582,0.488281,-0.671387,2026-04-20T14:57:29.655999+00:00
r6,-0.998535,-0.019165,0.123779,2.685547,0.488281,-0.671387,2026-04-20T14:57:29.656535+00:00
r6,-0.998291,-0.019287,0.125,2.746582,0.549316,-0.732422,2026-04-20T14:57:29.657072+00:00
r6,-0.998413,-0.020874,0.12439,2.685547,0.549316,-0.854492,2026-04-20T14:57:29.657659+00:00
r6,-0.998169,-0.019409,0.125,2.502441,0.549316,-0.793457,2026-04-20T14:57:29.658356+00:00
r6,-0.998291,-0.019531,0.125366,2.746582,0.427246,-0.732422,2026-04-20T14:57:29.658894+00:00
r6,-0.998657,-0.019775,0.124634,2.563477,0.610352,-0.793457,2026-04-20T14:57:29.659419+00:00
r6,-0.998413,-0.019531,0.123535,2.624512,0.488281,-0.610352,2026-04-20T14:57:29.659986+00:00
r6,-0.998291,-0.019897,0.124878,2.746582,0.549316,-0.854492,2026-04-20T14:57:29.660519+00:00
r6,-0.997925,-0.020996,0.124268,2.685547,0.732422,-0.732422,2026-04-20T14:57:29.661078+00:00
r6,-0.998291,-0.019287,0.123657,2.868652,0.488281,-0.732422,2026-04-20T14:57:29.661679+00:00
r6,-0.998047,-0.018677,0.124634,2.685547,0.488281,-0.610352,2026-04-20T14:57:29.662227+00:00
r6,-0.999023,-0.02002,0.12439,2.807617,0.549316,-0.671387,2026-04-20T14:57:29.662772+00:00
r6,-0.998901,-0.019409,0.124756,2.807617,0.610352,-0.793457,2026-04-20T14:57:29.663365+00:00
r6,-0.997925,-0.020996,0.124268,2.746582,0.610352,-0.915527,2026-04-20T14:57:29.663957+00:00
r6,-0.999023,-0.019165,0.123535,2.807617,0.549316,-0.854492,2026-04-20T14:57:29.664511+00:00
r6,-0.998535,-0.019165,0.123779,2.746582,0.610352,-0.671387,2026-04-20T14:57:29.665037+00:00
r6,-0.998413,-0.020386,0.124756,2.990723,0.610352,-0.549316,2026-04-20T14:57:29.665567+00:00
r6,-0.998657,-0.019897,0.124512,2.807617,0.732422,-0.854492,2026-04-20T14:57:29.666088+00:00
r6,-0.997803,-0.018555,0.124634,2.807617,0.549316,-0.671387,2026-04-20T14:57:29.666611+00:00
r6,-0.999634,-0.02002,0.123901,2.746582,0.549316,-0.549316,2026-04-20T14:57:29.667132+00:00
r6,-0.998413,-0.020386,0.124756,2.685547,0.549316,-0.671387,2026-04-20T14:57:29.667686+00:00
r6,-0.998657,-0.019897,0.124878,2.807617,0.610352,-0.610352,2026-04-20T14:57:29.668198+00:00
r6,-0.997314,-0.019775,0.124634,2.746582,0.610352,-0.671387,2026-04-20T14:57:29.668721+00:00
r6,-0.997925,-0.019531,0.125244,2.929688,0.549316,-0.671387,2026-04-20T14:57:29.669248+00:00
r6,-0.997803,-0.019409,0.124146,2.746582,0.732422,-0.610352,2026-04-20T14:57:29.669764+00:00
r6,-0.998535,-0.018799,0.125488,2.868652,0.488281,-0.671387,2026-04-20T14:57:29.670282+00:00
r6,-0.998291,-0.02002,0.124878,2.746582,0.610352,-0.732422,2026-04-20T14:57:29.670802+00:00
r6,-0.998291,-0.019165,0.124512,2.624512,0.488281,-0.732422,2026-04-20T14:57:29.671319+00:00
r6,-0.998047,-0.019531,0.124023,2.807617,0.732422,-0.671387,2026-04-20T14:57:29.671837+00:00
r6,-0.99939,-0.020874,0.125366,2.746582,0.671387,-0.793457,2026-04-20T14:57:29.672351+00:00
r6,-0.998535,-0.02063,0.124756,2.624512,0.549316,-0.610352,2026-04-20T14:57:29.672862+00:00
r6,-0.998291,-0.018799,0.123901,2.746582,0.610352,-0.671387,2026-04-20T14:57:29.673376+00:00
r6,-0.998779,-0.019775,0.125488,2.624512,0.732422,-0.793457,2026-04-20T14:57:29.673895+00:00
r6,-0.999512,-0.019775,0.123413,2.624512,0.671387,-0.610352,2026-04-20T14:57:29.674417+00:00
r6,-0.998169,-0.019775,0.123657,2.746582,0.610352,-0.732422,2026-04-20T14:57:29.674934+00:00
r6,-0.997681,-0.019775,0.123413,2.746582,0.671387,-0.671387,2026-04-20T14:57:29.675452+00:00
r6,-0.998291,-0.018677,0.124512,2.624512,0.549316,-0.732422,2026-04-20T14:57:29.675970+00:00
r6,-0.997925,-0.019653,0.125244,2.746582,0.671387,-0.732422,2026-04-20T14:57:29.676485+00:00
r6,-0.997803,-0.020996,0.125244,2.685547,0.610352,-0.671387,2026-04-20T14:57:29.676998+00:00
r6,-0.997681,-0.018433,0.124146,2.807617,0.610352,-0.610352,2026-04-20T14:57:29.677516+00:00
r6,-0.998413,-0.020508,0.123901,2.685547,0.732422,-0.732422,2026-04-20T14:57:29.678029+00:00
r6,-0.998291,-0.019409,0.124634,2.807617,0.488281,-0.732422,2026-04-20T14:57:29.678591+00:00
r6,-0.997803,-0.019409,0.123535,2.807617,0.549316,-0.671387,2026-04-20T14:57:29.679112+00:00
r6,-0.997559,-0.018799,0.123413,2.807617,0.549316,-0.732422,2026-04-20T14:57:29.679762+00:00
r6,-0.998291,-0.020508,0.124268,2.685547,0.488281,-0.793457,2026-04-20T14:57:29.680319+00:00
r6,-0.998169,-0.019531,0.124512,2.624512,0.549316,-0.732422,2026-04-20T14:57:29.680847+00:00
r6,-0.998535,-0.019653,0.125366,2.868652,0.549316,-0.854492,2026-04-20T14:57:29.681369+00:00
r6,-0.997314,-0.019775,0.124268,2.807617,0.610352,-0.854492,2026-04-20T14:57:29.681902+00:00
r6,-0.997681,-0.018677,0.123291,2.807617,0.366211,-0.671387,2026-04-20T14:57:29.682450+00:00
r6,-0.998413,-0.020508,0.12439,2.685547,0.610352,-0.793457,2026-04-20T14:57:29.682972+00:00
r6,-0.999512,-0.019165,0.12439,2.746582,0.610352,-0.732422,2026-04-20T14:57:29.683496+00:00
r6,-0.998535,-0.018433,0.123779,2.746582,0.549316,-0.610352,2026-04-20T14:57:29.684017+00:00
r6,-0.997559,-0.019653,0.124634,2.807617,0.671387,-0.732422,2026-04-20T14:57:29.684535+00:00
r6,-0.998901,-0.019653,0.123901,2.868652,0.610352,-0.732422,2026-04-20T14:57:29.685060+00:00
r6,-0.997925,-0.019409,0.124023,2.929688,0.732422,-0.793457,2026-04-20T14:57:29.685584+00:00
r6,-0.998169,-0.02002,0.123779,2.685547,0.549316,-0.610352,2026-04-20T14:57:29.686106+00:00
r6,-0.998291,-0.02063,0.123901,2.685547,0.671387,-0.671387,2026-04-20T14:57:29.686636+00:00
r6,-0.997681,-0.019409,0.123657,2.685547,0.610352,-0.732422,2026-04-20T14:57:29.687160+00:00
r6,-0.998413,-0.019775,0.123901,2.624512,0.549316,-0.732422,2026-04-20T14:57:29.687682+00:00
r6,-0.997437,-0.018188,0.125488,2.929688,0.671387,-0.610352,2026-04-20T14:57:29.688206+00:00
r6,-0.998413,-0.020508,0.124512,2.685547,0.549316,-0.793457,2026-04-20T14:57:29.688727+00:00
r6,-0.998291,-0.019165,0.124512,2.746582,0.610352,-0.793457,2026-04-20T14:57:29.689246+00:00
r6,-0.99939,-0.02002,0.124146,2.868652,0.549316,-0.549316,2026-04-20T14:57:29.689768+00:00
r6,-0.997681,-0.019043,0.123047,2.563477,0.671387,-0.671387,2026-04-20T14:57:29.690297+00:00
r6,-0.998047,-0.021118,0.124756,2.807617,0.549316,-0.610352,2026-04-20T14:57:29.690823+00:00
r6,-0.998047,-0.019409,0.12439,2.746582,0.549316,-0.793457,2026-04-20T14:57:29.715640+00:00
r6,-0.998413,-0.018677,0.125,2.746582,0.610352,-0.732422,2026-04-20T14:57:29.746618+00:00
r6,-0.999146,-0.020386,0.125488,2.746582,0.671387,-0.732422,2026-04-20T14:57:29.777624+00:00
r6,-0.997681,-0.020142,0.123657,2.624512,0.610352,-0.610352,2026-04-20T14:57:29.808624+00:00
r6,-0.999146,-0.020508,0.123657,2.807617,0.549316,-0.854492,2026-04-20T14:57:29.839047+00:00
r6,-0.998779,-0.020142,0.123901,2.746582,0.610352,-0.610352,2026-04-20T14:57:29.870051+00:00
r6,-0.998413,-0.019531,0.124268,2.990723,0.488281,-0.671387,2026-04-20T14:57:29.900639+00:00
r6,-0.997437,-0.020386,0.123047,2.685547,0.427246,-0.671387,2026-04-20T14:57:29.931669+00:00
r6,-0.998535,-0.02002,0.124634,2.990723,0.610352,-0.671387,2026-04-20T14:57:29.962624+00:00
r6,-0.998657,-0.019653,0.123901,2.807617,0.549316,-0.671387,2026-04-20T14:57:29.993640+00:00
r6,-0.999023,-0.020264,0.12439,2.929688,0.610352,-0.793457,2026-04-20T14:57:30.024683+00:00
r6,-0.998047,-0.019531,0.125122,2.868652,0.610352,-0.549316,2026-04-20T14:57:30.055669+00:00
r6,-0.998169,-0.021606,0.124878,2.746582,0.366211,-0.793457,2026-04-20T14:57:30.085845+00:00
r6,-0.999023,-0.020142,0.124634,2.685547,0.610352,-0.732422,2026-04-20T14:57:30.116642+00:00
r6,-0.998169,-0.019287,0.123413,2.685547,0.549316,-0.610352,2026-04-20T14:57:30.147093+00:00
r6,-0.999146,-0.02063,0.124878,2.624512,0.549316,-0.549316,2026-04-20T14:57:30.177957+00:00
r6,-0.998291,-0.021362,0.126343,2.624512,0.488281,-0.732422,2026-04-20T14:57:30.207082+00:00
r6,-0.983154,-0.02124,0.103516,2.502441,0.366211,-0.610352,2026-04-20T14:57:30.238088+00:00
r6,-1.024414,-0.041626,0.135132,2.624512,-2.746582,0.305176,2026-04-20T14:57:30.268692+00:00
r6,-1.068726,-0.029175,0.113037,1.831055,-0.061035,-1.281738,2026-04-20T14:57:30.299669+00:00
r6,-0.928467,-0.059082,0.094604,2.13623,1.464844,-1.525879,2026-04-20T14:57:30.330718+00:00
r6,-1.006836,-0.087524,0.102661,2.197266,-0.671387,-0.793457,2026-04-20T14:57:30.362094+00:00
r6,-1.038208,-0.03064,0.165649,1.342773,2.197266,-2.258301,2026-04-20T14:57:30.393097+00:00
r6,-0.996582,-0.011963,0.161987,4.638672,4.760742,-2.01416,2026-04-20T14:57:30.423685+00:00
r6,-1.042114,0.010742,0.140381,1.403809,5.554199,1.708984,2026-04-20T14:57:30.453707+00:00
r6,-1.002075,-0.040161,0.118774,1.77002,4.943848,-2.13623,2026-04-20T14:57:30.483101+00:00
r6,-0.960083,-0.040161,0.108765,1.220703,2.929688,-1.77002,2026-04-20T14:57:30.513098+00:00
r6,-1.020142,-0.051514,0.12561,3.356934,1.831055,-0.366211,2026-04-20T14:57:30.542700+00:00
r6,-0.997681,-0.055664,0.11145,-0.610352,3.90625,-3.356934,2026-04-20T14:57:30.572107+00:00
r6,-0.961792,-0.012695,0.184937,-1.464844,3.723145,-1.281738,2026-04-20T14:57:30.602120+00:00
r6,-1.026978,-0.029785,0.137817,-1.281738,2.624512,-1.403809,2026-04-20T14:57:30.631798+00:00
r6,-0.975586,-0.067627,0.09729,3.417969,7.69043,-3.662109,2026-04-20T14:57:30.662121+00:00
r6,-1.006714,-0.003906,0.223145,0.976562,2.746582,-0.12207,2026-04-20T14:57:30.692725+00:00
r6,-1.021729,-0.022339,0.174683,-1.159668,5.065918,-1.098633,2026-04-20T14:57:30.723704+00:00
r6,-1.004883,-0.046753,0.105957,-2.502441,7.69043,-1.037598,2026-04-20T14:57:30.755127+00:00
r6,-0.956299,-0.022583,0.148071,-0.610352,6.225586,-1.89209,2026-04-20T14:57:30.785707+00:00
r6,-1.025391,-0.042236,0.14209,0.0,6.347656,-0.549316,2026-04-20T14:57:30.816707+00:00
r6,-0.986206,-0.050049,0.113281,-2.075195,5.249023,-2.685547,2026-04-20T14:57:30.847716+00:00
r6,-0.953857,-0.030029,0.119507,-0.793457,4.821777,-1.281738,2026-04-20T14:57:30.877750+00:00
r6,-0.974731,-0.069702,0.12439,0.061035,6.164551,-0.854492,2026-04-20T14:57:30.907144+00:00
r6,-1.049316,-0.032471,0.250488,-1.77002,5.79834,-1.037598,2026-04-20T14:57:30.938718+00:00
r6,-0.988037,-0.009766,0.188477,-1.953125,7.873535,-2.563477,2026-04-20T14:57:30.969169+00:00
r6,-1.018677,-0.025391,0.196411,-1.098633,4.882812,-0.183105,2026-04-20T14:57:31.000158+00:00
r6,-0.989868,-0.052246,0.164917,-2.380371,7.629395,-1.220703,2026-04-20T14:57:31.031153+00:00
r6,-1.002075,-0.001709,0.190918,-2.01416,10.131836,15.380859,2026-04-20T14:57:31.061726+00:00
r6,-0.955933,-0.046875,0.108398,0.0,11.59668,1.525879,2026-04-20T14:57:31.091733+00:00
r6,-1.016235,-0.00293,0.244751,-3.234863,7.69043,0.061035,2026-04-20T14:57:31.121763+00:00
r6,-0.985474,-0.009155,0.143311,-4.455566,8.178711,-2.197266,2026-04-20T14:57:31.153181+00:00
r6,-1.026733,-0.007324,0.225464,3.173828,10.253906,-0.183105,2026-04-20T14:57:31.182208+00:00
r6,-0.973999,-0.062256,0.178223,-1.525879,9.82666,-0.854492,2026-04-20T14:57:31.213219+00:00
r6,-0.923096,0.005737,0.183228,-4.577637,10.375977,1.281738,2026-04-20T14:57:31.243815+00:00
r6,-1.073853,-0.018066,0.253296,-4.02832,12.329102,0.549316,2026-04-20T14:57:31.274750+00:00
r6,-0.921997,0.020874,0.166626,-5.493164,11.84082,0.0,2026-04-20T14:57:31.304746+00:00
r6,-0.995728,0.015259,0.267334,-2.075195,8.361816,0.915527,2026-04-20T14:57:31.334758+00:00
r6,-1.060303,0.017212,0.264526,-5.249023,11.71875,0.061035,2026-04-20T14:57:31.363780+00:00
r6,-0.922852,-0.027588,0.168945,-4.272461,14.587402,-0.488281,2026-04-20T14:57:31.394763+00:00
r6,-0.965698,-0.014038,0.266602,-2.380371,9.94873,1.342773,2026-04-20T14:57:31.425346+00:00
r6,-1.003784,-0.023682,0.247681,-1.098633,14.282227,1.098633,2026-04-20T14:57:31.454765+00:00
r6,-0.977539,-0.046143,0.220215,-4.943848,11.535645,2.685547,2026-04-20T14:57:31.485188+00:00
r6,-0.96106,-0.009277,0.269775,-6.958008,12.268066,2.929688,2026-04-20T14:57:31.515761+00:00
r6,-0.922485,0.008057,0.251221,-1.037598,14.831543,5.004883,2026-04-20T14:57:31.545195+00:00
r6,-0.980713,0.044922,0.32251,-1.403809,11.779785,3.417969,2026-04-20T14:57:31.575832+00:00
r6,-0.906372,0.028198,0.202271,-0.427246,15.075684,2.929688,2026-04-20T14:57:31.605814+00:00
r6,-0.921753,-0.052734,0.254517,-3.234863,15.380859,4.272461,2026-04-20T14:57:31.636796+00:00
r6,-0.994141,0.001221,0.368896,-3.417969,11.413574,5.67627,2026-04-20T14:57:31.666825+00:00
r6,-0.992554,-0.05249,0.265015,-2.624512,15.441895,6.591797,2026-04-20T14:57:31.697783+00:00
r6,-0.935059,0.001465,0.346069,-4.516602,12.145996,5.004883,2026-04-20T14:57:31.727208+00:00
r6,-0.93103,-0.005981,0.30896,-0.183105,13.549805,7.019043,2026-04-20T14:57:31.758224+00:00
r6,-1.049805,-0.002197,0.41394,-4.882812,12.451172,6.225586,2026-04-20T14:57:31.788226+00:00
r6,-0.90686,0.047729,0.304077,-0.488281,14.404297,6.103516,2026-04-20T14:57:31.818229+00:00
r6,-0.961914,-0.095215,0.413208,-1.831055,19.65332,6.591797,2026-04-20T14:57:31.848799+00:00
r6,-1.083252,-0.096313,0.415527,-2.624512,11.169434,8.056641,2026-04-20T14:57:31.879838+00:00
r6,-1.039429,-0.003296,0.428223,-6.04248,15.50293,7.202148,2026-04-20T14:57:31.910246+00:00
r6,-0.840942,0.014282,0.34375,-1.403809,11.84082,8.972168,2026-04-20T14:57:31.940233+00:00
r6,-0.97998,0.012329,0.470825,-4.760742,10.986328,8.422852,2026-04-20T14:57:31.970294+00:00
r6,-0.938599,-0.028442,0.456543,-2.746582,11.779785,8.422852,2026-04-20T14:57:32.001273+00:00
r6,-0.906128,-0.06897,0.400024,-2.807617,11.291504,8.728027,2026-04-20T14:57:32.032249+00:00
r6,-1.014648,-0.054687,0.428467,2.197266,12.268066,9.399414,2026-04-20T14:57:32.062819+00:00
r6,-0.981934,-0.057617,0.359985,-5.249023,11.413574,9.033203,2026-04-20T14:57:32.093857+00:00
r6,-0.937866,0.045654,0.435181,-5.310059,11.474609,9.82666,2026-04-20T14:57:32.124336+00:00
r6,-0.938843,-0.011841,0.437866,-0.549316,10.925293,9.521484,2026-04-20T14:57:32.155307+00:00
r6,-0.951782,0.034546,0.449097,-2.01416,9.58252,10.681152,2026-04-20T14:57:32.184831+00:00
r6,-0.789307,-0.073364,0.460205,-5.92041,16.540527,9.58252,2026-04-20T14:57:32.214830+00:00
r6,-0.738037,-0.092041,0.419922,-0.244141,14.953613,10.559082,2026-04-20T14:57:32.245865+00:00
r6,-0.834717,-0.082153,0.457397,-6.652832,10.314941,10.253906,2026-04-20T14:57:32.275851+00:00
r6,-0.901855,-0.039429,0.452026,-2.380371,13.48877,10.559082,2026-04-20T14:57:32.306878+00:00
r6,-0.810791,-0.103882,0.412842,-3.234863,15.441895,9.765625,2026-04-20T14:57:32.337856+00:00
r6,-0.980957,-0.049194,0.602295,-3.78418,7.446289,11.108398,2026-04-20T14:57:32.368307+00:00
r6,-0.778198,-0.020508,0.391846,-4.150391,14.282227,11.047363,2026-04-20T14:57:32.398863+00:00
r6,-0.83728,-0.115479,0.582642,-2.258301,11.901855,10.864258,2026-04-20T14:57:32.429871+00:00
r6,-0.879517,-0.10437,0.553589,-2.502441,9.155273,10.986328,2026-04-20T14:57:32.460891+00:00
r6,-0.927734,0.029175,0.507568,-1.586914,9.155273,11.108398,2026-04-20T14:57:32.491298+00:00
r6,-0.7854,-0.053589,0.496216,-4.333496,8.239746,9.82666,2026-04-20T14:57:32.521876+00:00
r6,-0.900513,-0.113647,0.557251,-2.990723,7.141113,10.009766,2026-04-20T14:57:32.552875+00:00
r6,-0.834106,-0.082153,0.494995,-4.272461,10.864258,10.925293,2026-04-20T14:57:32.583906+00:00
r6,-0.851807,-0.043945,0.522339,-1.77002,7.019043,9.94873,2026-04-20T14:57:32.614306+00:00
r6,-0.808228,-0.077637,0.52832,-0.854492,7.873535,9.887695,2026-04-20T14:57:32.645307+00:00
r6,-0.790161,-0.071045,0.532959,-2.929688,8.117676,9.887695,2026-04-20T14:57:32.676297+00:00
r6,-0.851807,-0.106567,0.521362,-4.272461,8.605957,10.070801,2026-04-20T14:57:32.706892+00:00
r6,-0.843384,-0.114746,0.535522,-0.061035,4.882812,9.155273,2026-04-20T14:57:32.737303+00:00
r6,-0.861816,-0.094604,0.48291,1.403809,6.225586,9.643555,2026-04-20T14:57:32.766345+00:00
r6,-0.819824,-0.112671,0.512085,-2.563477,5.371094,8.728027,2026-04-20T14:57:32.796892+00:00
r6,-0.85437,-0.091431,0.552979,-1.464844,3.90625,8.422852,2026-04-20T14:57:32.827890+00:00
r6,-0.869751,-0.113647,0.653564,-2.502441,3.967285,8.117676,2026-04-20T14:57:32.858336+00:00
r6,-0.85022,-0.16687,0.592773,-1.220703,4.333496,7.8125,2026-04-20T14:57:32.888923+00:00
r6,-0.829712,-0.079346,0.541016,1.586914,5.554199,7.568359,2026-04-20T14:57:32.919325+00:00
r6,-0.825684,-0.193237,0.640747,-1.525879,6.591797,7.8125,2026-04-20T14:57:32.949903+00:00
r6,-0.785645,-0.084106,0.557617,-1.708984,5.126953,8.972168,2026-04-20T14:57:32.980324+00:00
r6,-0.849731,-0.063232,0.588501,-5.126953,5.79834,8.300781,2026-04-20T14:57:33.010332+00:00
r6,-0.830566,-0.215942,0.532715,1.953125,4.882812,6.469727,2026-04-20T14:57:33.038941+00:00
r6,-0.784424,-0.173706,0.570068,3.540039,4.699707,6.713867,2026-04-20T14:57:33.068333+00:00
r6,-0.79248,-0.101685,0.547852,1.159668,2.685547,6.408691,2026-04-20T14:57:33.097923+00:00
r6,-0.814087,-0.100464,0.531982,0.488281,4.699707,6.286621,2026-04-20T14:57:33.127979+00:00
r6,-0.822632,-0.176758,0.636475,-0.549316,3.90625,5.981445,2026-04-20T14:57:33.157949+00:00
r6,-0.829956,-0.139648,0.539917,0.610352,2.13623,5.249023,2026-04-20T14:57:33.188344+00:00
r6,-0.824097,-0.167236,0.681519,0.183105,3.479004,5.554199,2026-04-20T14:57:33.218929+00:00
r6,-0.824951,-0.148926,0.580078,2.319336,3.662109,5.004883,2026-04-20T14:57:33.249363+00:00
r6,-0.796387,-0.153687,0.671021,3.417969,3.479004,3.967285,2026-04-20T14:57:33.278934+00:00
r6,-0.785156,-0.119629,0.539185,-0.366211,4.150391,4.577637,2026-04-20T14:57:33.308936+00:00
r6,-0.793823,-0.138672,0.586182,0.549316,5.065918,3.78418,2026-04-20T14:57:33.337963+00:00
r6,-0.799561,-0.196167,0.669067,1.403809,2.258301,3.662109,2026-04-20T14:57:33.368003+00:00
r6,-0.797974,-0.130005,0.516846,4.211426,4.455566,3.295898,2026-04-20T14:57:33.397366+00:00
r6,-0.81665,-0.172119,0.715088,0.244141,5.065918,3.295898,2026-04-20T14:57:33.427369+00:00
r6,-0.765625,-0.156006,0.490479,1.464844,3.601074,3.295898,2026-04-20T14:57:33.456619+00:00
r6,-0.821777,-0.208618,0.707764,5.371094,0.244141,1.525879,2026-04-20T14:57:33.486942+00:00
r6,-0.7677,-0.19751,0.557495,2.197266,0.793457,1.525879,2026-04-20T14:57:33.516950+00:00
r6,-0.810669,-0.165283,0.505371,1.342773,3.601074,1.77002,2026-04-20T14:57:33.547370+00:00
r6,-0.813477,-0.212524,0.770996,2.990723,5.371094,1.77002,2026-04-20T14:57:33.577379+00:00
r6,-0.819092,-0.184082,0.610474,8.422852,3.78418,1.159668,2026-04-20T14:57:33.607381+00:00
r6,-0.756714,-0.192993,0.543701,3.723145,6.347656,1.647949,2026-04-20T14:57:33.637397+00:00
r6,-0.805542,-0.208496,0.679199,2.01416,-3.417969,-0.427246,2026-04-20T14:57:33.668388+00:00
r6,-0.771606,-0.123657,0.5177,1.403809,0.915527,0.732422,2026-04-20T14:57:33.697381+00:00
r6,-0.807739,-0.193359,0.616089,2.746582,0.061035,-0.366211,2026-04-20T14:57:33.728391+00:00
r6,-0.7854,-0.197754,0.63147,3.356934,0.549316,-0.244141,2026-04-20T14:57:33.759409+00:00
r6,-0.798706,-0.161621,0.572998,3.356934,0.061035,-0.366211,2026-04-20T14:57:33.790412+00:00
r6,-0.772705,-0.159302,0.56311,2.624512,0.976562,0.244141,2026-04-20T14:57:33.819996+00:00
r6,-0.799316,-0.164429,0.578857,2.441406,0.915527,-0.061035,2026-04-20T14:57:33.850004+00:00
r6,-0.780273,-0.179932,0.603271,2.990723,0.610352,-0.12207,2026-04-20T14:57:33.880985+00:00
r6,-0.800537,-0.176758,0.602051,2.929688,0.366211,-0.12207,2026-04-20T14:57:33.912010+00:00
r6,-0.785278,-0.171387,0.590698,2.685547,0.305176,-0.061035,2026-04-20T14:57:33.942466+00:00
r6,-0.79541,-0.168091,0.586304,2.807617,0.671387,0.0,2026-04-20T14:57:33.973050+00:00
r6,-0.78772,-0.166992,0.591309,2.624512,0.732422,0.0,2026-04-20T14:57:34.001015+00:00
r6,-0.791748,-0.174561,0.593994,2.929688,0.488281,-0.061035,2026-04-20T14:57:34.031432+00:00
r6,-0.791748,-0.173096,0.59375,2.990723,0.427246,-0.183105,2026-04-20T14:57:34.062434+00:00
r6,-0.786743,-0.169067,0.59314,2.807617,0.732422,-0.061035,2026-04-20T14:57:34.093503+00:00
r6,-0.792725,-0.170166,0.589233,2.624512,0.427246,-0.183105,2026-04-20T14:57:34.123019+00:00
r6,-0.786621,-0.170166,0.592651,2.868652,0.549316,-0.061035,2026-04-20T14:57:34.153444+00:00
r6,-0.791992,-0.162231,0.584717,2.685547,0.427246,0.0,2026-04-20T14:57:34.183454+00:00
r6,-0.787231,-0.167236,0.583496,2.502441,0.915527,0.0,2026-04-20T14:57:34.213449+00:00
r6,-0.792725,-0.172241,0.596191,2.624512,0.549316,-0.12207,2026-04-20T14:57:34.244451+00:00
r6,-0.790527,-0.17749,0.596924,2.929688,0.488281,-0.12207,2026-04-20T14:57:34.275451+00:00
r6,-0.790405,-0.171997,0.589478,2.807617,0.732422,-0.12207,2026-04-20T14:57:34.306033+00:00
r6,-0.790039,-0.167969,0.5896,2.746582,0.671387,0.061035,2026-04-20T14:57:34.336046+00:00
r6,-0.790161,-0.172119,0.590088,2.624512,0.793457,-0.12207,2026-04-20T14:57:34.365871+00:00
r6,-0.792969,-0.172974,0.593262,2.746582,0.610352,-0.183105,2026-04-20T14:57:34.396457+00:00
r6,-0.789429,-0.172729,0.593994,2.868652,0.671387,-0.244141,2026-04-20T14:57:34.426050+00:00
r6,-0.789673,-0.170532,0.590454,2.807617,0.610352,-0.244141,2026-04-20T14:57:34.456057+00:00
r6,-0.788452,-0.169922,0.5896,2.685547,0.610352,-0.061035,2026-04-20T14:57:34.487110+00:00
r6,-0.790039,-0.172607,0.589355,2.807617,0.549316,0.0,2026-04-20T14:57:34.517467+00:00
r6,-0.791504,-0.172119,0.592896,2.807617,0.427246,-0.12207,2026-04-20T14:57:34.548479+00:00
r6,-0.790649,-0.171997,0.591919,2.929688,0.610352,-0.061035,2026-04-20T14:57:34.579483+00:00
r6,-0.790161,-0.172363,0.59375,2.807617,0.549316,-0.183105,2026-04-20T14:57:34.610056+00:00
r6,-0.789429,-0.171265,0.588379,2.929688,0.610352,-0.12207,2026-04-20T14:57:34.641068+00:00
r6,-0.789917,-0.172729,0.589844,2.746582,0.427246,-0.061035,2026-04-20T14:57:34.671481+00:00
r6,-0.789429,-0.172852,0.590576,2.746582,0.671387,-0.12207,2026-04-20T14:57:34.702495+00:00
r6,-0.790405,-0.172729,0.592773,2.746582,0.549316,-0.244141,2026-04-20T14:57:34.733500+00:00
r6,-0.790405,-0.170166,0.592529,2.868652,0.549316,-0.12207,2026-04-20T14:57:34.764497+00:00
r6,-0.790894,-0.171265,0.592041,2.807617,0.671387,-0.244141,2026-04-20T14:57:34.795523+00:00
r6,-0.791748,-0.17041,0.592407,2.990723,0.671387,-0.244141,2026-04-20T14:57:34.826092+00:00
r6,-0.790161,-0.170166,0.592651,2.929688,0.732422,0.0,2026-04-20T14:57:34.855088+00:00
r6,-0.790649,-0.171509,0.592407,2.746582,0.610352,-0.12207,2026-04-20T14:57:34.884509+00:00
r6,-0.790649,-0.172241,0.591309,2.807617,0.732422,-0.061035,2026-04-20T14:57:34.913146+00:00
r6,-0.78894,-0.171509,0.591553,2.624512,0.427246,-0.061035,2026-04-20T14:57:34.943512+00:00
r6,-0.790771,-0.170288,0.592163,2.807617,0.549316,-0.244141,2026-04-20T14:57:34.974077+00:00
r6,-0.789673,-0.171997,0.591919,2.685547,0.610352,-0.12207,2026-04-20T14:57:35.005096+00:00
r6,-0.790771,-0.171021,0.591309,2.868652,0.610352,0.0,2026-04-20T14:57:35.033522+00:00
r6,-0.789917,-0.169678,0.590576,2.685547,0.549316,-0.061035,2026-04-20T14:57:35.064106+00:00
r6,-0.790161,-0.171387,0.591431,2.685547,0.549316,-0.061035,2026-04-20T14:57:35.094105+00:00
r6,-0.790161,-0.172729,0.592896,2.746582,0.549316,-0.12207,2026-04-20T14:57:35.124155+00:00
r6,-0.790405,-0.172729,0.591553,2.746582,0.671387,-0.12207,2026-04-20T14:57:35.154099+00:00
r6,-0.791504,-0.171387,0.591187,2.868652,0.732422,0.0,2026-04-20T14:57:35.183534+00:00
r6,-0.788574,-0.170654,0.59082,2.746582,0.549316,-0.12207,2026-04-20T14:57:35.214113+00:00
r6,-0.790039,-0.170166,0.591675,2.685547,0.671387,-0.061035,2026-04-20T14:57:35.244447+00:00
r6,-0.790527,-0.171997,0.590698,2.746582,0.610352,-0.183105,2026-04-20T14:57:35.274119+00:00
r6,-0.79187,-0.17688,0.621826,2.746582,0.488281,-0.244141,2026-04-20T14:57:35.305124+00:00
r6,-0.794678,-0.189819,0.672363,2.868652,2.624512,0.244141,2026-04-20T14:57:35.335605+00:00
r6,-0.804565,-0.141846,0.572144,3.173828,3.479004,0.305176,2026-04-20T14:57:35.365575+00:00
r6,-0.824463,-0.202515,0.743286,5.249023,9.216309,0.427246,2026-04-20T14:57:35.394553+00:00
r6,-0.725464,-0.166382,0.64978,5.371094,3.540039,-0.976562,2026-04-20T14:57:35.425129+00:00
r6,-0.789673,-0.134277,0.521606,0.976562,1.037598,-3.417969,2026-04-20T14:57:35.455136+00:00
r6,-0.811768,-0.218018,0.693359,4.821777,0.732422,-4.821777,2026-04-20T14:57:35.485641+00:00
r6,-0.750244,-0.151245,0.563477,-3.051758,3.051758,-1.647949,2026-04-20T14:57:35.516137+00:00
r6,-0.826416,-0.16748,0.602051,-5.737305,3.723145,-2.807617,2026-04-20T14:57:35.547179+00:00
r6,-0.781616,-0.159668,0.704956,1.403809,6.835937,-4.394531,2026-04-20T14:57:35.577567+00:00
r6,-0.843384,-0.152954,0.76709,-0.732422,4.821777,-5.79834,2026-04-20T14:57:35.608136+00:00
r6,-0.762085,-0.154785,0.560791,-0.061035,7.93457,-5.187988,2026-04-20T14:57:35.639165+00:00
r6,-0.838135,-0.18103,0.755127,-1.098633,5.065918,-6.896973,2026-04-20T14:57:35.670198+00:00
r6,-0.733032,-0.147339,0.552124,3.601074,8.117676,-7.93457,2026-04-20T14:57:35.700155+00:00
r6,-0.76355,-0.124023,0.607056,-0.610352,8.483887,-9.216309,2026-04-20T14:57:35.731165+00:00
r6,-0.796265,-0.156738,0.732422,-2.319336,8.117676,-8.117676,2026-04-20T14:57:35.761169+00:00
r6,-0.765015,-0.133911,0.649048,-3.173828,8.605957,-11.59668,2026-04-20T14:57:35.791159+00:00
r6,-0.721558,-0.095337,0.518188,-3.234863,13.244629,-11.962891,2026-04-20T14:57:35.822167+00:00
r6,-0.692261,-0.020508,0.674194,-5.554199,9.887695,-14.953613,2026-04-20T14:57:35.853169+00:00
r6,-0.840942,-0.097168,0.730713,-1.464844,7.507324,-16.906738,2026-04-20T14:57:35.883183+00:00
r6,-0.710693,-0.010376,0.637451,-10.681152,15.075684,-15.319824,2026-04-20T14:57:35.914608+00:00
r6,-0.741089,-0.083984,0.721191,-11.291504,10.681152,-17.456055,2026-04-20T14:57:35.946213+00:00
r6,-0.807129,-0.044312,0.744629,-11.71875,10.375977,-19.042969,2026-04-20T14:57:35.976178+00:00
r6,-0.721924,-0.028076,0.609741,-11.71875,13.61084,-19.65332,2026-04-20T14:57:36.007664+00:00
r6,-0.751343,-0.011108,0.656982,-5.249023,11.474609,-21.42334,2026-04-20T14:57:36.039217+00:00
r6,-0.817627,-0.001709,0.834473,-13.48877,6.774902,-23.803711,2026-04-20T14:57:36.070670+00:00
r6,-0.718872,0.063843,0.680908,-15.625,13.85498,-23.498535,2026-04-20T14:57:36.101224+00:00
r6,-0.783081,0.041138,0.673096,-10.498047,10.681152,-25.024414,2026-04-20T14:57:36.132214+00:00
r6,-0.685547,0.004517,0.661255,-7.202148,11.352539,-24.475098,2026-04-20T14:57:36.163208+00:00
r6,-0.639526,0.088013,0.627075,-5.310059,12.939453,-24.719238,2026-04-20T14:57:36.194212+00:00
r6,-0.727051,0.08606,0.6521,-7.019043,11.108398,-25.20752,2026-04-20T14:57:36.224634+00:00
r6,-0.732666,0.099243,0.681763,-4.882812,13.305664,-23.071289,2026-04-20T14:57:36.255635+00:00
r6,-0.610474,0.077148,0.583008,-0.366211,14.526367,-23.4375,2026-04-20T14:57:36.286641+00:00
r6,-0.742065,0.156982,0.766602,-3.90625,7.8125,-23.864746,2026-04-20T14:57:36.317634+00:00
r6,-0.675415,0.103394,0.69397,-2.929688,11.474609,-23.4375,2026-04-20T14:57:36.348691+00:00
r6,-0.647095,0.137817,0.69397,-5.065918,9.94873,-21.484375,2026-04-20T14:57:36.379693+00:00
r6,-0.668335,0.13501,0.765259,-2.502441,9.094238,-21.240234,2026-04-20T14:57:36.410232+00:00
r6,-0.633545,0.136108,0.683594,-3.234863,9.643555,-19.104004,2026-04-20T14:57:36.440679+00:00
r6,-0.624756,0.107666,0.657959,1.220703,11.657715,-14.587402,2026-04-20T14:57:36.470237+00:00
r6,-0.657715,0.154053,0.734009,5.126953,7.8125,-15.319824,2026-04-20T14:57:36.500242+00:00
r6,-0.594238,0.11792,0.643188,6.469727,10.375977,-12.268066,2026-04-20T14:57:36.530662+00:00
r6,-0.589966,0.156494,0.655151,0.732422,5.493164,-10.498047,2026-04-20T14:57:36.561269+00:00
r6,-0.701294,0.18335,0.787354,3.234863,3.295898,-8.300781,2026-04-20T14:57:36.591698+00:00
r6,-0.571533,0.134766,0.678589,4.089355,5.310059,-6.591797,2026-04-20T14:57:36.622250+00:00
r6,-0.605591,0.141357,0.664551,3.051758,0.915527,-3.90625,2026-04-20T14:57:36.652678+00:00
r6,-0.646851,0.148437,0.762451,1.342773,-1.281738,-2.380371,2026-04-20T14:57:36.682284+00:00
r6,-0.581909,0.186401,0.67688,2.197266,-0.061035,0.305176,2026-04-20T14:57:36.711678+00:00
r6,-0.664673,0.213135,0.809082,2.685547,-0.732422,0.610352,2026-04-20T14:57:36.742260+00:00
r6,-0.602417,0.206055,0.75354,2.929688,0.732422,0.244141,2026-04-20T14:57:36.771689+00:00
r6,-0.63269,0.210327,0.742187,2.624512,0.305176,0.305176,2026-04-20T14:57:36.801715+00:00
r6,-0.611694,0.192383,0.744873,2.807617,1.037598,0.366211,2026-04-20T14:57:36.831258+00:00
r6,-0.630859,0.195312,0.76001,2.807617,0.305176,0.244141,2026-04-20T14:57:36.861261+00:00
r6,-0.613037,0.187012,0.736694,3.051758,0.732422,0.244141,2026-04-20T14:57:36.890686+00:00
r6,-0.617432,0.194214,0.737183,2.807617,0.610352,0.244141,2026-04-20T14:57:36.919695+00:00
r6,-0.61499,0.188843,0.751221,2.746582,0.671387,0.183105,2026-04-20T14:57:36.949281+00:00
r6,-0.624146,0.186279,0.749634,2.990723,0.366211,0.244141,2026-04-20T14:57:36.979297+00:00
r6,-0.615845,0.191284,0.738159,2.746582,0.732422,0.12207,2026-04-20T14:57:37.006737+00:00
r6,-0.619141,0.192017,0.745361,2.868652,0.366211,0.244141,2026-04-20T14:57:37.035462+00:00
r6,-0.62146,0.196655,0.748291,2.868652,0.549316,0.305176,2026-04-20T14:57:37.065332+00:00
r6,-0.615479,0.196045,0.744263,2.685547,0.366211,0.244141,2026-04-20T14:57:37.095286+00:00
r6,-0.626709,0.199097,0.747192,2.807617,0.549316,0.183105,2026-04-20T14:57:37.124750+00:00
r6,-0.610596,0.193604,0.74231,2.868652,0.610352,0.305176,2026-04-20T14:57:37.154298+00:00
r6,-0.631958,0.19751,0.74939,2.807617,0.488281,0.183105,2026-04-20T14:57:37.183717+00:00
r6,-0.610107,0.190063,0.739868,2.807617,0.610352,0.244141,2026-04-20T14:57:37.212715+00:00
r6,-0.62146,0.192505,0.746826,2.929688,0.366211,0.061035,2026-04-20T14:57:37.241311+00:00
r6,-0.614624,0.186279,0.74353,2.868652,0.671387,0.183105,2026-04-20T14:57:37.269150+00:00
r6,-0.611328,0.192871,0.744141,2.807617,0.366211,0.305176,2026-04-20T14:57:37.299294+00:00
r6,-0.617187,0.19397,0.745361,2.807617,0.854492,0.183105,2026-04-20T14:57:37.328391+00:00
r6,-0.615601,0.192505,0.743164,2.807617,0.610352,0.183105,2026-04-20T14:57:37.357747+00:00
r6,-0.626465,0.200928,0.749023,2.868652,0.549316,0.12207,2026-04-20T14:57:37.386734+00:00
r6,-0.621704,0.198975,0.743774,2.807617,0.671387,0.244141,2026-04-20T14:57:37.415341+00:00
r6,-0.624878,0.198364,0.745728,2.929688,0.549316,0.244141,2026-04-20T14:57:37.444741+00:00
r6,-0.618652,0.196655,0.746704,2.746582,0.610352,0.12207,2026-04-20T14:57:37.472326+00:00
r6,-0.617187,0.193115,0.744385,2.929688,0.488281,0.183105,2026-04-20T14:57:37.501317+00:00
r6,-0.621094,0.197754,0.745972,2.685547,0.671387,0.12207,2026-04-20T14:57:37.530331+00:00
r6,-0.623169,0.197754,0.746216,2.929688,0.610352,0.061035,2026-04-20T14:57:37.559338+00:00
r6,-0.617554,0.191772,0.744995,2.868652,0.610352,0.12207,2026-04-20T14:57:37.586755+00:00
r6,-0.61731,0.194214,0.746216,2.868652,0.549316,0.183105,2026-04-20T14:57:37.616757+00:00
r6,-0.617065,0.19458,0.743286,2.990723,0.732422,0.061035,2026-04-20T14:57:37.645767+00:00
r6,-0.621338,0.195312,0.74646,2.807617,0.488281,0.12207,2026-04-20T14:57:37.672765+00:00
r6,-0.620972,0.196899,0.745361,2.624512,0.793457,0.12207,2026-04-20T14:57:37.699386+00:00
r6,-0.616455,0.194824,0.744385,2.563477,0.549316,0.061035,2026-04-20T14:57:37.726771+00:00
r6,-0.62793,0.197266,0.747803,2.868652,0.671387,0.12207,2026-04-20T14:57:37.754353+00:00
r6,-0.617676,0.19519,0.781006,2.929688,1.098633,-0.12207,2026-04-20T14:57:37.784355+00:00
r6,-0.557739,0.192505,0.652222,2.624512,3.601074,-1.037598,2026-04-20T14:57:37.812924+00:00
r6,-0.613403,0.212036,0.758911,4.882812,-3.234863,-1.586914,2026-04-20T14:57:37.843401+00:00
r6,-0.60437,0.188843,0.704712,4.516602,0.183105,-2.868652,2026-04-20T14:57:37.872778+00:00
r6,-0.678345,0.216553,0.890137,5.187988,-0.915527,-2.746582,2026-04-20T14:57:37.903034+00:00
r6,-0.588013,0.196533,0.728638,4.760742,-0.976562,-2.441406,2026-04-20T14:57:37.934370+00:00
r6,-0.618896,0.229492,0.710327,5.310059,-1.89209,-3.723145,2026-04-20T14:57:37.963791+00:00
r6,-0.64856,0.17627,0.822266,8.483887,-5.79834,-3.479004,2026-04-20T14:57:37.993040+00:00
r6,-0.590576,0.227905,0.710815,9.155273,-5.249023,-2.502441,2026-04-20T14:57:38.022377+00:00
r6,-0.694214,0.224243,0.757324,14.038086,-5.981445,-3.601074,2026-04-20T14:57:38.052407+00:00
r6,-0.588745,0.195801,0.799927,6.04248,-4.272461,-4.638672,2026-04-20T14:57:38.082433+00:00
r6,-0.633423,0.191528,0.703979,8.789063,-4.638672,-3.662109,2026-04-20T14:57:38.112808+00:00
r6,-0.650391,0.25293,0.879395,7.080078,-2.380371,-3.78418,2026-04-20T14:57:38.141799+00:00
r6,-0.573242,0.207642,0.638184,13.366699,-3.540039,-4.821777,2026-04-20T14:57:38.172406+00:00
r6,-0.637451,0.220337,0.797729,6.896973,-4.02832,-7.324219,2026-04-20T14:57:38.202402+00:00
r6,-0.637451,0.154297,0.804321,12.939453,-7.019043,-5.249023,2026-04-20T14:57:38.232450+00:00
r6,-0.610596,0.242187,0.700562,13.427734,-6.652832,-5.432129,2026-04-20T14:57:38.261810+00:00
r6,-0.648926,0.207642,0.788818,16.479492,-4.638672,-4.943848,2026-04-20T14:57:38.291824+00:00
r6,-0.609253,0.173584,0.682007,13.305664,-4.821777,-6.347656,2026-04-20T14:57:38.321407+00:00
r6,-0.623535,0.158081,0.668823,12.878418,-6.958008,-6.896973,2026-04-20T14:57:38.351830+00:00
r6,-0.638306,0.192749,0.772583,8.605957,-8.056641,-8.483887,2026-04-20T14:57:38.379834+00:00
r6,-0.654175,0.163208,0.630127,17.51709,-8.239746,-6.04248,2026-04-20T14:57:38.408836+00:00
r6,-0.669312,0.178101,0.818848,15.319824,-6.103516,-6.774902,2026-04-20T14:57:38.439423+00:00
r6,-0.609253,0.135864,0.606567,16.479492,-6.469727,-7.080078,2026-04-20T14:57:38.466901+00:00
r6,-0.679443,0.169312,0.713501,21.606445,-9.216309,-6.164551,2026-04-20T14:57:38.496834+00:00
r6,-0.627197,0.138428,0.712769,19.40918,-9.216309,-7.446289,2026-04-20T14:57:38.527475+00:00
r6,-0.647705,0.177612,0.732788,14.221191,-7.568359,-8.178711,2026-04-20T14:57:38.556850+00:00
r6,-0.72229,0.156616,0.784912,16.113281,-13.793945,-8.300781,2026-04-20T14:57:38.587179+00:00
r6,-0.643188,0.166992,0.709351,15.991211,-7.568359,-8.056641,2026-04-20T14:57:38.617856+00:00
r6,-0.672729,0.173218,0.720093,17.51709,-9.033203,-7.629395,2026-04-20T14:57:38.647858+00:00
r6,-0.67749,0.157959,0.660522,18.310547,-10.009766,-8.056641,2026-04-20T14:57:38.678890+00:00
r6,-0.645874,0.18396,0.75293,15.319824,-13.000488,-10.498047,2026-04-20T14:57:38.709467+00:00
r6,-0.708496,0.128662,0.744385,16.967773,-13.671875,-10.070801,2026-04-20T14:57:38.740447+00:00
r6,-0.717285,0.17627,0.709961,19.592285,-10.620117,-8.544922,2026-04-20T14:57:38.770709+00:00
r6,-0.675781,0.173584,0.685669,17.272949,-9.338379,-9.460449,2026-04-20T14:57:38.801871+00:00
r6,-0.714233,0.158691,0.681763,16.967773,-12.268066,-10.131836,2026-04-20T14:57:38.832864+00:00
r6,-0.735107,0.119019,0.74292,16.967773,-12.512207,-11.108398,2026-04-20T14:57:38.863462+00:00
r6,-0.667725,0.146606,0.675781,19.348145,-14.221191,-10.009766,2026-04-20T14:57:38.894459+00:00
r6,-0.750488,0.154663,0.707764,20.751953,-16.235352,-9.58252,2026-04-20T14:57:38.924881+00:00
r6,-0.78479,0.113281,0.732178,23.132324,-15.563965,-9.216309,2026-04-20T14:57:38.955891+00:00
r6,-0.704468,0.119385,0.656494,24.475098,-12.695313,-8.178711,2026-04-20T14:57:38.986943+00:00
r6,-0.773926,0.078247,0.685913,25.20752,-14.587402,-8.239746,2026-04-20T14:57:39.017533+00:00
r6,-0.703125,0.116821,0.651245,22.644043,-11.901855,-9.033203,2026-04-20T14:57:39.048506+00:00
r6,-0.736694,0.081909,0.59436,26.184082,-14.099121,-8.605957,2026-04-20T14:57:39.079529+00:00
r6,-0.785156,0.106934,0.639038,22.521973,-13.73291,-8.850098,2026-04-20T14:57:39.110480+00:00
r6,-0.731812,0.056152,0.644165,25.024414,-18.127441,-10.314941,2026-04-20T14:57:39.139482+00:00
r6,-0.76001,0.089966,0.551514,28.991699,-17.39502,-8.972168,2026-04-20T14:57:39.169479+00:00
r6,-0.866821,0.072754,0.715088,27.648926,-19.40918,-9.765625,2026-04-20T14:57:39.198479+00:00
r6,-0.754761,0.078735,0.611694,24.719238,-16.418457,-8.789063,2026-04-20T14:57:39.229486+00:00
r6,-0.77478,0.063965,0.574097,21.850586,-17.211914,-9.460449,2026-04-20T14:57:39.259474+00:00
r6,-0.840942,0.0271,0.594116,24.658203,-12.390137,-9.338379,2026-04-20T14:57:39.289493+00:00
r6,-0.701416,0.062744,0.604736,25.939941,-13.427734,-6.835937,2026-04-20T14:57:39.319492+00:00
r6,-0.842529,0.084839,0.554687,28.015137,-16.235352,-6.164551,2026-04-20T14:57:39.349925+00:00
r6,-0.838623,0.060181,0.594971,25.146484,-14.770508,-7.69043,2026-04-20T14:57:39.380489+00:00
r6,-0.7771,0.070435,0.561768,26.611328,-15.50293,-7.019043,2026-04-20T14:57:39.410664+00:00
r6,-0.816284,0.033569,0.560669,24.658203,-15.014648,-8.850098,2026-04-20T14:57:39.441921+00:00
r6,-0.87793,0.034546,0.580078,23.742676,-14.648438,-7.507324,2026-04-20T14:57:39.472979+00:00
r6,-0.821533,0.009521,0.525024,25.20752,-7.751465,-6.713867,2026-04-20T14:57:39.503932+00:00
r6,-0.789551,0.006592,0.471436,26.489258,-13.366699,-4.211426,2026-04-20T14:57:39.534511+00:00
r6,-0.832031,0.021729,0.532104,21.362305,-12.573242,-7.019043,2026-04-20T14:57:39.565534+00:00
r6,-0.808838,0.025879,0.512939,20.935059,-11.291504,-6.713867,2026-04-20T14:57:39.595647+00:00
r6,-0.80188,-0.016846,0.479492,22.705078,-12.695313,-5.615234,2026-04-20T14:57:39.626518+00:00
r6,-0.864014,0.019531,0.521729,20.568848,-13.244629,-5.371094,2026-04-20T14:57:39.655938+00:00
r6,-0.925659,-0.022583,0.560547,21.484375,-12.329102,-4.760742,2026-04-20T14:57:39.686545+00:00
r6,-0.783203,0.048218,0.476929,17.883301,-7.8125,-5.615234,2026-04-20T14:57:39.716990+00:00
r6,-0.919556,-0.034668,0.528076,22.399902,-12.084961,-3.601074,2026-04-20T14:57:39.747966+00:00
r6,-0.938965,-0.017334,0.517944,19.836426,-11.169434,-4.821777,2026-04-20T14:57:39.777667+00:00
r6,-0.868286,-0.033569,0.496582,19.775391,-7.202148,-3.173828,2026-04-20T14:57:39.806546+00:00
r6,-0.824951,-0.038574,0.488037,17.333984,-5.92041,-4.150391,2026-04-20T14:57:39.837558+00:00
r6,-0.917358,-0.031982,0.480469,17.089844,-8.361816,-4.02832,2026-04-20T14:57:39.868959+00:00
r6,-0.917847,-0.005981,0.551758,18.005371,-8.483887,-2.868652,2026-04-20T14:57:39.899970+00:00
r6,-0.841919,-0.034668,0.443115,19.042969,-6.530762,-1.281738,2026-04-20T14:57:39.931550+00:00
r6,-0.880859,0.002686,0.50708,17.51709,-7.324219,-1.953125,2026-04-20T14:57:39.961548+00:00
r6,-0.883789,-0.047363,0.469971,15.441895,-7.446289,-3.967285,2026-04-20T14:57:39.992555+00:00
r6,-0.874634,-0.037476,0.460571,17.333984,-4.882812,-2.441406,2026-04-20T14:57:40.023990+00:00
r6,-0.924561,-0.057007,0.488403,14.343262,-4.211426,-6.469727,2026-04-20T14:57:40.054983+00:00
r6,-0.887451,-0.036621,0.457031,14.343262,-5.493164,-2.13623,2026-04-20T14:57:40.086567+00:00
r6,-0.890991,-0.065063,0.447388,12.695313,-3.845215,-1.525879,2026-04-20T14:57:40.117572+00:00
r6,-0.900757,-0.05896,0.478516,12.023926,-8.056641,-2.075195,2026-04-20T14:57:40.148995+00:00
r6,-0.910522,-0.053467,0.457886,10.192871,-5.615234,-3.051758,2026-04-20T14:57:40.180022+00:00
r6,-0.927979,-0.043701,0.506104,13.183594,-3.662109,0.976562,2026-04-20T14:57:40.210002+00:00
r6,-0.870972,-0.025146,0.419434,13.305664,-2.929688,0.854492,2026-04-20T14:57:40.241003+00:00
r6,-0.916992,-0.041138,0.446655,11.59668,-6.591797,-1.342773,2026-04-20T14:57:40.272576+00:00
r6,-0.907104,-0.053101,0.431519,8.483887,-0.915527,-2.380371,2026-04-20T14:57:40.303580+00:00
r6,-0.939819,-0.065552,0.503906,9.58252,-5.615234,-0.854492,2026-04-20T14:57:40.335004+00:00
r6,-0.900146,-0.088257,0.424561,4.882812,-5.737305,-2.868652,2026-04-20T14:57:40.366586+00:00
r6,-0.911987,-0.037598,0.479492,8.422852,-5.981445,2.01416,2026-04-20T14:57:40.397170+00:00
r6,-0.905273,-0.038818,0.414917,8.666992,-4.150391,0.732422,2026-04-20T14:57:40.428606+00:00
r6,-0.860962,-0.011963,0.355225,6.713867,-2.075195,-0.793457,2026-04-20T14:57:40.460025+00:00
r6,-0.890259,-0.031006,0.422119,7.446289,-2.746582,-0.366211,2026-04-20T14:57:40.491607+00:00
r6,-0.902832,-0.038086,0.421753,5.249023,-3.234863,-2.197266,2026-04-20T14:57:40.522016+00:00
r6,-0.930298,-0.064819,0.428345,6.408691,-0.915527,0.183105,2026-04-20T14:57:40.553031+00:00
r6,-0.85437,-0.086426,0.382935,5.126953,-0.854492,0.427246,2026-04-20T14:57:40.584035+00:00
r6,-0.914062,-0.082764,0.397217,4.882812,-1.89209,1.77002,2026-04-20T14:57:40.615042+00:00
r6,-1.009888,-0.056763,0.487915,1.586914,-1.342773,-1.708984,2026-04-20T14:57:40.646047+00:00
r6,-0.92041,-0.057007,0.448975,3.662109,-0.183105,0.366211,2026-04-20T14:57:40.677034+00:00
r6,-0.894409,-0.057495,0.406616,0.610352,0.183105,-2.868652,2026-04-20T14:57:40.706637+00:00
r6,-0.87915,-0.051392,0.413086,3.967285,-0.976562,1.220703,2026-04-20T14:57:40.737103+00:00
r6,-0.927002,-0.05603,0.429932,0.061035,0.244141,-2.685547,2026-04-20T14:57:40.767683+00:00
r6,-0.911499,-0.048218,0.44519,4.455566,0.0,1.89209,2026-04-20T14:57:40.797903+00:00
r6,-0.912109,-0.046021,0.430298,3.112793,0.244141,0.305176,2026-04-20T14:57:40.828627+00:00
r6,-0.916382,-0.050171,0.421631,3.417969,0.610352,0.915527,2026-04-20T14:57:40.858642+00:00
r6,-0.89209,-0.049072,0.415894,4.638672,0.366211,1.831055,2026-04-20T14:57:40.889068+00:00
r6,-0.917969,-0.053223,0.430786,1.89209,0.732422,-0.671387,2026-04-20T14:57:40.920068+00:00
r6,-0.887939,-0.044678,0.40564,2.746582,0.915527,2.685547,2026-04-20T14:57:40.950072+00:00
r6,-0.902466,-0.060669,0.411499,3.295898,0.427246,0.732422,2026-04-20T14:57:40.980653+00:00
r6,-0.914062,-0.05249,0.432495,0.244141,1.708984,-2.502441,2026-04-20T14:57:41.010671+00:00
r6,-0.902222,-0.057007,0.433105,5.310059,-0.305176,2.685547,2026-04-20T14:57:41.041078+00:00
r6,-0.917236,-0.048462,0.428589,2.868652,0.427246,0.366211,2026-04-20T14:57:41.071665+00:00
r6,-0.917358,-0.055176,0.410889,0.732422,1.647949,-1.89209,2026-04-20T14:57:41.102721+00:00
r6,-0.914429,-0.053101,0.440063,4.577637,-0.061035,1.77002,2026-04-20T14:57:41.133657+00:00
r6,-0.91626,-0.043945,0.42749,2.807617,0.793457,0.12207,2026-04-20T14:57:41.164114+00:00
r6,-0.881836,-0.050781,0.407104,4.333496,0.305176,1.647949,2026-04-20T14:57:41.194662+00:00
r6,-0.909302,-0.056519,0.415771,3.78418,0.366211,0.976562,2026-04-20T14:57:41.224108+00:00
r6,-0.911255,-0.056885,0.430786,0.732422,1.342773,-2.258301,2026-04-20T14:57:41.254676+00:00
r6,-0.889771,-0.044312,0.4198,5.310059,-0.061035,1.89209,2026-04-20T14:57:41.284098+00:00
r6,-0.917725,-0.055664,0.425171,3.540039,0.244141,1.098633,2026-04-20T14:57:41.313672+00:00
r6,-0.90686,-0.055664,0.430664,-0.854492,1.89209,-3.417969,2026-04-20T14:57:41.345095+00:00
r6,-0.921143,-0.047852,0.444946,5.004883,-0.366211,2.319336,2026-04-20T14:57:41.375680+00:00
r6,-0.907715,-0.04126,0.428711,2.502441,0.915527,0.12207,2026-04-20T14:57:41.406133+00:00
r6,-0.891235,-0.042603,0.415161,4.150391,0.12207,1.953125,2026-04-20T14:57:41.435683+00:00
r6,-0.907715,-0.052246,0.415649,3.051758,0.610352,0.427246,2026-04-20T14:57:41.465687+00:00
r6,-0.907837,-0.05127,0.430786,2.868652,0.488281,0.183105,2026-04-20T14:57:41.495683+00:00
r6,-0.912354,-0.054321,0.429199,2.807617,0.12207,0.183105,2026-04-20T14:57:41.525716+00:00
r6,-0.907593,-0.053345,0.424683,2.868652,0.610352,0.427246,2026-04-20T14:57:41.555696+00:00
r6,-0.898682,-0.054321,0.416748,2.929688,0.732422,0.12207,2026-04-20T14:57:41.585123+00:00
r6,-0.90918,-0.048584,0.424194,2.868652,0.671387,0.244141,2026-04-20T14:57:41.614707+00:00
r6,-0.909302,-0.052979,0.42981,2.929688,0.732422,0.244141,2026-04-20T14:57:41.644732+00:00
r6,-0.90979,-0.05481,0.426147,2.807617,0.305176,0.244141,2026-04-20T14:57:41.674712+00:00
r6,-0.905518,-0.046753,0.423096,2.746582,0.671387,0.183105,2026-04-20T14:57:41.704157+00:00
r6,-0.904785,-0.050293,0.422119,2.685547,0.732422,0.12207,2026-04-20T14:57:41.733738+00:00
r6,-0.910156,-0.049927,0.426025,2.807617,0.610352,0.366211,2026-04-20T14:57:41.762739+00:00
r6,-0.908691,-0.050293,0.424316,2.807617,0.610352,0.244141,2026-04-20T14:57:41.792135+00:00
r6,-0.90564,-0.049194,0.423706,2.929688,0.610352,0.244141,2026-04-20T14:57:41.821732+00:00
r6,-0.906494,-0.052856,0.424072,2.746582,0.549316,0.12207,2026-04-20T14:57:41.850726+00:00
r6,-0.906494,-0.047607,0.424805,2.746582,0.854492,0.366211,2026-04-20T14:57:41.880146+00:00
r6,-0.908081,-0.04834,0.426025,2.868652,0.610352,0.12207,2026-04-20T14:57:41.910173+00:00
r6,-0.907715,-0.051514,0.424927,2.746582,0.549316,0.244141,2026-04-20T14:57:41.940210+00:00
r6,-0.904785,-0.050903,0.423096,2.929688,0.549316,0.244141,2026-04-20T14:57:41.970156+00:00
r6,-0.908936,-0.048828,0.424561,2.807617,0.610352,0.244141,2026-04-20T14:57:42.000157+00:00
r6,-0.906494,-0.051147,0.424805,2.746582,0.732422,0.244141,2026-04-20T14:57:42.030183+00:00
r6,-0.908936,-0.050293,0.425171,2.990723,0.549316,0.305176,2026-04-20T14:57:42.060513+00:00
r6,-0.90686,-0.049927,0.424927,2.807617,0.732422,0.244141,2026-04-20T14:57:42.088744+00:00
r6,-0.905884,-0.052002,0.424072,2.807617,0.732422,0.12207,2026-04-20T14:57:42.118220+00:00
r6,-0.909912,-0.04834,0.426758,2.807617,0.610352,0.183105,2026-04-20T14:57:42.147762+00:00
r6,-0.905762,-0.047607,0.424683,2.807617,0.793457,0.183105,2026-04-20T14:57:42.177754+00:00
r6,-0.908691,-0.052124,0.424683,2.746582,0.793457,0.061035,2026-04-20T14:57:42.207239+00:00
r6,-0.907104,-0.051636,0.424438,2.807617,0.732422,0.244141,2026-04-20T14:57:42.237198+00:00
r6,-0.907104,-0.049072,0.424805,2.807617,0.488281,0.12207,2026-04-20T14:57:42.267805+00:00
r6,-0.908813,-0.049927,0.425049,2.746582,0.610352,0.183105,2026-04-20T14:57:42.296774+00:00
r6,-0.906738,-0.050049,0.423706,2.746582,0.610352,0.244141,2026-04-20T14:57:42.325197+00:00
r6,-0.907593,-0.047729,0.424316,2.868652,0.610352,0.12207,2026-04-20T14:57:42.355199+00:00
r6,-0.906616,-0.049805,0.424927,2.746582,0.732422,0.183105,2026-04-20T14:57:42.384783+00:00
r6,-0.908936,-0.052856,0.42395,2.868652,0.549316,0.305176,2026-04-20T14:57:42.415206+00:00
r6,-0.907104,-0.048584,0.425171,2.868652,0.671387,0.305176,2026-04-20T14:57:42.445237+00:00
r6,-0.906738,-0.05188,0.423584,2.868652,0.671387,0.244141,2026-04-20T14:57:42.475791+00:00
r6,-0.931396,-0.046631,0.415527,2.685547,0.732422,0.183105,2026-04-20T14:57:42.505777+00:00
r6,-0.897461,-0.04895,0.381592,4.333496,0.732422,1.708984,2026-04-20T14:57:42.535860+00:00
r6,-0.983643,-0.069214,0.48877,5.859375,-1.77002,3.112793,2026-04-20T14:57:42.566209+00:00
r6,-0.92334,-0.072998,0.431641,0.244141,-0.427246,-1.77002,2026-04-20T14:57:42.597222+00:00
r6,-0.866211,-0.093628,0.314697,-2.197266,4.760742,2.441406,2026-04-20T14:57:42.628226+00:00
r6,-0.868286,-0.072266,0.399902,-2.502441,6.713867,3.479004,2026-04-20T14:57:42.658802+00:00
r6,-1.000488,-0.074951,0.547729,0.244141,7.507324,6.958008,2026-04-20T14:57:42.689229+00:00
r6,-0.870361,-0.034546,0.389771,-6.958008,6.958008,7.324219,2026-04-20T14:57:42.720257+00:00
r6,-0.875244,-0.04126,0.404663,-0.488281,5.004883,4.760742,2026-04-20T14:57:42.750819+00:00
r6,-0.876953,-0.0896,0.410522,-3.295898,6.286621,1.586914,2026-04-20T14:57:42.781240+00:00
r6,-1.015015,-0.095825,0.532227,-0.305176,4.02832,5.187988,2026-04-20T14:57:42.810823+00:00
r6,-0.799438,-0.070923,0.319824,-0.549316,8.300781,7.080078,2026-04-20T14:57:42.841249+00:00
r6,-0.905762,-0.107666,0.461792,-3.540039,7.385254,9.399414,2026-04-20T14:57:42.870858+00:00
r6,-0.943604,-0.087036,0.4646,-4.638672,7.568359,10.498047,2026-04-20T14:57:42.901818+00:00
r6,-0.845581,-0.075195,0.401978,-3.479004,12.329102,9.399414,2026-04-20T14:57:42.932829+00:00
r6,-0.851318,-0.087769,0.417358,-3.295898,8.361816,13.48877,2026-04-20T14:57:42.963846+00:00
r6,-1.005249,-0.092896,0.539917,-11.84082,6.530762,4.943848,2026-04-20T14:57:42.994860+00:00
r6,-0.821533,-0.089844,0.329834,-8.422852,6.958008,7.080078,2026-04-20T14:57:43.024261+00:00
r6,-0.784302,-0.055176,0.361938,-9.887695,9.643555,9.82666,2026-04-20T14:57:43.054845+00:00
r6,-0.883057,-0.098877,0.413208,2.624512,8.056641,14.343262,2026-04-20T14:57:43.085257+00:00
r6,-0.861938,-0.085571,0.464111,-7.385254,15.686035,13.793945,2026-04-20T14:57:43.115855+00:00
r6,-0.84436,-0.097046,0.468628,-5.92041,9.58252,16.296387,2026-04-20T14:57:43.146273+00:00
r6,-0.93042,-0.089478,0.47644,-13.427734,13.48877,10.864258,2026-04-20T14:57:43.176857+00:00
r6,-0.84021,-0.098267,0.441162,-5.126953,14.831543,13.000488,2026-04-20T14:57:43.207278+00:00
r6,-0.853394,-0.125122,0.513916,-6.652832,10.925293,14.892578,2026-04-20T14:57:43.238285+00:00
r6,-0.844238,-0.130981,0.557861,-8.666992,14.038086,14.099121,2026-04-20T14:57:43.267887+00:00
r6,-0.873901,-0.13916,0.520508,-6.591797,10.620117,13.73291,2026-04-20T14:57:43.298867+00:00
r6,-0.871948,-0.123413,0.52356,-10.375977,12.939453,15.380859,2026-04-20T14:57:43.329291+00:00
r6,-0.886475,-0.114868,0.555054,-9.643555,13.366699,16.540527,2026-04-20T14:57:43.359896+00:00
r6,-0.895874,-0.130005,0.601318,-8.605957,13.73291,16.235352,2026-04-20T14:57:43.388856+00:00
r6,-0.816772,-0.095337,0.580322,-7.385254,18.676758,16.479492,2026-04-20T14:57:43.418934+00:00
r6,-0.795044,-0.114136,0.526611,-10.803223,15.930176,17.456055,2026-04-20T14:57:43.449469+00:00
r6,-0.770752,-0.160645,0.522095,-7.446289,17.944336,18.737793,2026-04-20T14:57:43.480934+00:00
r6,-0.847534,-0.174194,0.54895,-12.695313,17.333984,18.432617,2026-04-20T14:57:43.509880+00:00
r6,-0.797241,-0.176147,0.581787,-13.061523,15.686035,17.211914,2026-04-20T14:57:43.540878+00:00
r6,-0.808838,-0.118286,0.533691,-13.366699,12.145996,15.625,2026-04-20T14:57:43.571300+00:00
r6,-0.814087,-0.155396,0.631104,-11.84082,18.981934,19.897461,2026-04-20T14:57:43.600882+00:00
r6,-0.784546,-0.119873,0.546509,-9.58252,16.967773,19.958496,2026-04-20T14:57:43.631888+00:00
r6,-0.768311,-0.14209,0.555054,-10.986328,18.249512,20.568848,2026-04-20T14:57:43.661308+00:00
r6,-0.791626,-0.172729,0.611572,-10.314941,19.165039,20.690918,2026-04-20T14:57:43.691316+00:00
r6,-0.626831,-0.137207,0.460815,-13.977051,22.827148,20.202637,2026-04-20T14:57:43.720901+00:00
r6,-0.819214,-0.151855,0.674438,-12.878418,14.465332,20.812988,2026-04-20T14:57:43.750904+00:00
r6,-0.697998,-0.121094,0.579834,-8.239746,21.362305,21.179199,2026-04-20T14:57:43.781907+00:00
r6,-0.653076,-0.133179,0.550171,-13.122559,20.202637,22.888184,2026-04-20T14:57:43.812344+00:00
r6,-0.831055,-0.168579,0.728638,-13.61084,15.686035,20.202637,2026-04-20T14:57:43.841943+00:00
r6,-0.689331,-0.147339,0.612183,-10.986328,23.4375,21.118164,2026-04-20T14:57:43.870913+00:00
r6,-0.659058,-0.153198,0.624512,-8.972168,18.737793,23.864746,2026-04-20T14:57:43.899329+00:00
r6,-0.713501,-0.206909,0.689819,-15.075684,18.188477,23.498535,2026-04-20T14:57:43.929959+00:00
r6,-0.72876,-0.151855,0.688721,-14.953613,22.766113,23.132324,2026-04-20T14:57:43.959924+00:00
r6,-0.638428,-0.136719,0.709961,-11.59668,21.30127,23.254395,2026-04-20T14:57:43.990340+00:00
r6,-0.604126,-0.171021,0.625732,-8.422852,22.277832,23.193359,2026-04-20T14:57:44.020341+00:00
r6,-0.694092,-0.168213,0.765259,-8.850098,19.714355,23.498535,2026-04-20T14:57:44.051350+00:00
r6,-0.708252,-0.228882,0.788696,-15.380859,17.63916,21.911621,2026-04-20T14:57:44.081953+00:00
r6,-0.648926,-0.247681,0.773682,-12.878418,22.583008,23.4375,2026-04-20T14:57:44.112964+00:00
r6,-0.619995,-0.119507,0.784302,-8.666992,23.742676,23.986816,2026-04-20T14:57:44.142943+00:00
r6,-0.726318,-0.231689,0.897705,-11.779785,18.066406,24.047852,2026-04-20T14:57:44.173940+00:00
r6,-0.540405,-0.130127,0.707397,-13.549805,26.855469,23.376465,2026-04-20T14:57:44.203935+00:00
r6,-0.588501,-0.262329,0.821655,-12.207031,20.385742,23.742676,2026-04-20T14:57:44.234935+00:00
r6,-0.593506,-0.178467,0.790894,-8.728027,17.333984,23.986816,2026-04-20T14:57:44.264356+00:00
r6,-0.489014,-0.150269,0.753296,-7.141113,22.583008,23.55957,2026-04-20T14:57:44.294959+00:00
r6,-0.56897,-0.191772,0.829102,-4.455566,21.179199,24.291992,2026-04-20T14:57:44.325427+00:00
r6,-0.46875,-0.180542,0.787231,-6.774902,20.263672,21.484375,2026-04-20T14:57:44.355967+00:00
r6,-0.523071,-0.175171,0.847412,-15.014648,20.385742,20.874023,2026-04-20T14:57:44.386410+00:00
r6,-0.516235,-0.179077,0.861938,-8.605957,20.080566,22.827148,2026-04-20T14:57:44.415388+00:00
r6,-0.399048,-0.209473,0.789062,-7.385254,23.864746,23.620605,2026-04-20T14:57:44.444969+00:00
r6,-0.479126,-0.112427,0.866821,-6.469727,16.357422,21.30127,2026-04-20T14:57:44.475964+00:00
r6,-0.54895,-0.160278,0.914795,-5.310059,17.456055,19.226074,2026-04-20T14:57:44.506979+00:00
r6,-0.362061,-0.207764,0.734375,-4.211426,19.53125,20.019531,2026-04-20T14:57:44.538001+00:00
r6,-0.349243,-0.158813,0.774536,-4.699707,13.793945,21.484375,2026-04-20T14:57:44.568986+00:00
r6,-0.396606,-0.104614,0.861572,-4.699707,17.211914,20.324707,2026-04-20T14:57:44.599986+00:00
r6,-0.44043,-0.182129,0.905762,-9.82666,12.084961,17.76123,2026-04-20T14:57:44.630988+00:00
r6,-0.397949,-0.230835,0.876709,-5.065918,11.71875,17.272949,2026-04-20T14:57:44.661019+00:00
r6,-0.421387,-0.230591,0.796631,-4.272461,9.70459,18.188477,2026-04-20T14:57:44.691416+00:00
r6,-0.338013,-0.171143,0.865112,-5.493164,16.784668,17.51709,2026-04-20T14:57:44.721997+00:00
r6,-0.290771,-0.201538,0.807251,-2.01416,16.906738,16.418457,2026-04-20T14:57:44.752004+00:00
r6,-0.401733,-0.14917,0.93396,-2.258301,10.864258,15.075684,2026-04-20T14:57:44.783007+00:00
r6,-0.310425,-0.220581,0.862671,-3.662109,13.85498,15.50293,2026-04-20T14:57:44.813434+00:00
r6,-0.354492,-0.213135,0.859741,-6.713867,12.268066,15.74707,2026-04-20T14:57:44.843417+00:00
r6,-0.338867,-0.16394,0.862549,-0.793457,16.296387,14.404297,2026-04-20T14:57:44.873435+00:00
r6,-0.318604,-0.224243,0.85022,-2.502441,14.160156,13.427734,2026-04-20T14:57:44.904024+00:00
r6,-0.388306,-0.179199,0.901123,-1.89209,9.70459,13.61084,2026-04-20T14:57:44.935045+00:00
r6,-0.320068,-0.224365,0.772095,-1.831055,12.023926,13.61084,2026-04-20T14:57:44.965441+00:00
r6,-0.353394,-0.217773,1.001587,-1.89209,8.972168,12.084961,2026-04-20T14:57:44.996024+00:00
r6,-0.312134,-0.182861,0.922119,-3.356934,8.728027,11.535645,2026-04-20T14:57:45.027025+00:00
r6,-0.304688,-0.231445,0.916992,-0.244141,8.056641,11.352539,2026-04-20T14:57:45.057453+00:00
r6,-0.332031,-0.164795,0.967896,-1.708984,9.399414,11.352539,2026-04-20T14:57:45.087504+00:00
r6,-0.319458,-0.15686,0.865845,3.234863,9.399414,9.094238,2026-04-20T14:57:45.117454+00:00
r6,-0.309082,-0.221313,0.965942,6.469727,9.338379,6.958008,2026-04-20T14:57:45.148039+00:00
r6,-0.297852,-0.220825,0.939331,-6.347656,11.047363,9.70459,2026-04-20T14:57:45.179045+00:00
r6,-0.34436,-0.145264,1.017212,2.319336,11.169434,8.911133,2026-04-20T14:57:45.209450+00:00
r6,-0.317261,-0.150635,1.090698,0.488281,2.807617,8.300781,2026-04-20T14:57:45.240033+00:00
r6,-0.257813,-0.120728,0.8927,0.12207,6.469727,6.713867,2026-04-20T14:57:45.270452+00:00
r6,-0.258911,-0.20874,0.911621,3.845215,6.530762,4.760742,2026-04-20T14:57:45.301040+00:00
r6,-0.275269,-0.223267,1.107666,5.432129,5.249023,3.540039,2026-04-20T14:57:45.331121+00:00
r6,-0.283813,-0.19165,0.967407,-4.150391,5.79834,5.67627,2026-04-20T14:57:45.361329+00:00
r6,-0.248291,-0.163086,0.862793,-4.089355,4.394531,5.554199,2026-04-20T14:57:45.392480+00:00
r6,-0.270142,-0.123901,0.845825,-2.197266,8.850098,3.723145,2026-04-20T14:57:45.422062+00:00
r6,-0.227905,-0.234253,0.878174,4.272461,5.859375,2.563477,2026-04-20T14:57:45.451054+00:00
r6,-0.289063,-0.221436,1.03418,3.356934,2.929688,3.112793,2026-04-20T14:57:45.481058+00:00
r6,-0.213379,-0.16272,0.88916,2.13623,3.234863,3.417969,2026-04-20T14:57:45.510478+00:00
r6,-0.27832,-0.173584,0.951172,3.540039,4.333496,1.708984,2026-04-20T14:57:45.540066+00:00
r6,-0.248047,-0.255005,1.038574,3.967285,2.990723,0.366211,2026-04-20T14:57:45.570474+00:00
r6,-0.22998,-0.117798,0.789307,0.0,4.089355,1.525879,2026-04-20T14:57:45.600099+00:00
r6,-0.238403,-0.225708,1.011353,2.319336,-1.098633,-0.793457,2026-04-20T14:57:45.631516+00:00
r6,-0.270508,-0.214844,0.971558,3.479004,0.854492,-0.427246,2026-04-20T14:57:45.662073+00:00
r6,-0.23645,-0.198853,0.898193,2.685547,0.915527,-0.488281,2026-04-20T14:57:45.692498+00:00
r6,-0.27356,-0.19873,0.921143,2.380371,0.610352,-0.488281,2026-04-20T14:57:45.722498+00:00
r6,-0.246948,-0.213989,0.941895,2.380371,0.915527,-0.305176,2026-04-20T14:57:45.753515+00:00
r6,-0.265747,-0.223877,0.956909,2.990723,0.183105,-0.671387,2026-04-20T14:57:45.784091+00:00
r6,-0.246582,-0.2146,0.93335,3.173828,0.976562,-0.732422,2026-04-20T14:57:45.815085+00:00
r6,-0.258179,-0.203247,0.940918,2.807617,0.183105,-0.549316,2026-04-20T14:57:45.845514+00:00
r6,-0.253784,-0.202271,0.93042,2.746582,0.976562,-0.610352,2026-04-20T14:57:45.875519+00:00
r6,-0.258789,-0.207764,0.938965,2.746582,0.366211,-0.549316,2026-04-20T14:57:45.906576+00:00
r6,-0.258423,-0.212524,0.943726,2.807617,0.793457,-0.488281,2026-04-20T14:57:45.936519+00:00
r6,-0.254272,-0.200684,0.938965,2.563477,0.610352,-0.488281,2026-04-20T14:57:45.967126+00:00
r6,-0.256836,-0.205933,0.93689,2.868652,0.732422,-0.671387,2026-04-20T14:57:45.998175+00:00
r6,-0.253784,-0.202759,0.935791,2.807617,0.549316,-0.732422,2026-04-20T14:57:46.028113+00:00
r6,-0.256714,-0.20459,0.939941,2.685547,0.610352,-0.488281,2026-04-20T14:57:46.058533+00:00
r6,-0.255859,-0.207764,0.94104,2.929688,0.549316,-0.488281,2026-04-20T14:57:46.089115+00:00
r6,-0.254272,-0.203491,0.936768,2.807617,0.732422,-0.488281,2026-04-20T14:57:46.119140+00:00
r6,-0.256714,-0.202393,0.937256,2.807617,0.549316,-0.549316,2026-04-20T14:57:46.149119+00:00
r6,-0.257568,-0.205322,0.938843,2.746582,0.671387,-0.488281,2026-04-20T14:57:46.179135+00:00
r6,-0.254761,-0.203613,0.940308,2.868652,0.427246,-0.488281,2026-04-20T14:57:46.210125+00:00
r6,-0.256226,-0.203613,0.938843,2.807617,0.427246,-0.549316,2026-04-20T14:57:46.240120+00:00
r6,-0.254395,-0.204224,0.93689,2.746582,0.793457,-0.549316,2026-04-20T14:57:46.270618+00:00
r6,-0.257568,-0.201416,0.940186,2.746582,0.610352,-0.549316,2026-04-20T14:57:46.301552+00:00
r6,-0.254761,-0.205322,0.938354,2.685547,0.610352,-0.549316,2026-04-20T14:57:46.331139+00:00
r6,-0.258911,-0.205444,0.94165,3.051758,0.610352,-0.488281,2026-04-20T14:57:46.362005+00:00
r6,-0.253052,-0.20105,0.936035,2.929688,0.671387,-0.305176,2026-04-20T14:57:46.391566+00:00
r6,-0.257324,-0.201782,0.940063,2.746582,0.671387,-0.488281,2026-04-20T14:57:46.422148+00:00
r6,-0.25354,-0.203613,0.938721,2.685547,0.549316,-0.427246,2026-04-20T14:57:46.453142+00:00
r6,-0.25769,-0.202637,0.940308,2.624512,0.610352,-0.549316,2026-04-20T14:57:46.484160+00:00
r6,-0.254883,-0.20459,0.938599,2.685547,0.732422,-0.549316,2026-04-20T14:57:46.515151+00:00
r6,-0.255005,-0.204102,0.937866,2.685547,0.488281,-0.549316,2026-04-20T14:57:46.545833+00:00
r6,-0.255615,-0.204834,0.937012,2.746582,0.488281,-0.488281,2026-04-20T14:57:46.577184+00:00
r6,-0.255371,-0.203369,0.936768,2.624512,0.488281,-0.549316,2026-04-20T14:57:46.608162+00:00
r6,-0.256836,-0.202393,0.938843,2.868652,0.549316,-0.549316,2026-04-20T14:57:46.638598+00:00
r6,-0.255005,-0.204712,0.937866,2.746582,0.671387,-0.488281,2026-04-20T14:57:46.669598+00:00
r6,-0.256348,-0.202515,0.938843,2.685547,0.549316,-0.610352,2026-04-20T14:57:46.700173+00:00
r6,-0.255493,-0.201538,0.937622,2.746582,0.610352,-0.427246,2026-04-20T14:57:46.730186+00:00
r6,-0.255493,-0.20459,0.937622,2.746582,0.610352,-0.488281,2026-04-20T14:57:46.761188+00:00
r6,-0.255859,-0.202026,0.938965,2.685547,0.488281,-0.610352,2026-04-20T14:57:46.792186+00:00
r6,-0.254883,-0.202271,0.937622,2.624512,0.671387,-0.427246,2026-04-20T14:57:46.823192+00:00
r6,-0.255981,-0.205444,0.938232,2.807617,0.732422,-0.549316,2026-04-20T14:57:46.854183+00:00
r6,-0.256714,-0.202026,0.937012,2.685547,0.610352,-0.610352,2026-04-20T14:57:46.884618+00:00
r6,-0.25647,-0.202881,0.938232,2.563477,0.549316,-0.427246,2026-04-20T14:57:46.914201+00:00
r6,-0.255005,-0.203491,0.937134,2.624512,0.549316,-0.427246,2026-04-20T14:57:46.945197+00:00
r6,-0.256958,-0.202393,0.938477,2.746582,0.549316,-0.488281,2026-04-20T14:57:46.976206+00:00
r6,-0.255981,-0.204468,0.938477,2.685547,0.610352,-0.549316,2026-04-20T14:57:47.007199+00:00
r6,-0.254395,-0.204468,0.936523,1.464844,0.549316,0.0,2026-04-20T14:57:47.037213+00:00
r6,-0.255981,-0.195557,0.939819,-1.647949,0.549316,0.671387,2026-04-20T14:57:47.067292+00:00
r6,-0.255615,-0.193604,0.938232,4.516602,0.732422,-1.647949,2026-04-20T14:57:47.096702+00:00
r6,-0.255493,-0.199707,0.938843,2.746582,0.427246,-0.488281,2026-04-20T14:57:47.127639+00:00
r6,-0.255493,-0.199463,0.938232,2.746582,0.549316,-0.488281,2026-04-20T14:57:47.158645+00:00
r6,-0.254517,-0.202881,0.939697,2.746582,0.488281,-0.610352,2026-04-20T14:57:47.189649+00:00
r6,-0.255615,-0.199219,0.939819,2.746582,0.610352,-0.549316,2026-04-20T14:57:47.220218+00:00
r6,-0.255493,-0.199951,0.937622,2.746582,0.732422,-0.366211,2026-04-20T14:57:47.251257+00:00
r6,-0.255371,-0.202515,0.939209,2.807617,0.671387,-0.610352,2026-04-20T14:57:47.282223+00:00
r6,-0.255371,-0.199829,0.938599,3.051758,0.671387,-0.610352,2026-04-20T14:57:47.313240+00:00
r6,-0.256104,-0.202759,0.939087,2.563477,0.549316,-0.610352,2026-04-20T14:57:47.343685+00:00
r6,-0.255371,-0.201538,0.93811,2.746582,0.610352,-0.549316,2026-04-20T14:57:47.374663+00:00
r6,-0.256714,-0.199951,0.939697,2.746582,0.610352,-0.427246,2026-04-20T14:57:47.405666+00:00
r6,-0.254639,-0.200562,0.938232,2.746582,0.610352,-0.610352,2026-04-20T14:57:47.436672+00:00
r6,-0.255859,-0.200073,0.938965,2.624512,0.793457,-0.610352,2026-04-20T14:57:47.467674+00:00
r6,-0.255005,-0.201782,0.938843,2.685547,0.793457,-0.549316,2026-04-20T14:57:47.498255+00:00
r6,-0.255371,-0.200195,0.938477,2.624512,0.549316,-0.427246,2026-04-20T14:57:47.528702+00:00
r6,-0.255737,-0.199219,0.94043,2.624512,0.671387,-0.549316,2026-04-20T14:57:47.558677+00:00
r6,-0.255005,-0.202759,0.938599,2.685547,0.610352,-0.427246,2026-04-20T14:57:47.589258+00:00
r6,-0.255249,-0.200317,0.938965,2.624512,0.671387,-0.488281,2026-04-20T14:57:47.619253+00:00
r6,-0.255737,-0.19873,0.938354,2.868652,0.671387,-0.427246,2026-04-20T14:57:47.649262+00:00
r6,-0.255127,-0.203735,0.937988,2.746582,0.549316,-0.427246,2026-04-20T14:57:47.679258+00:00
r6,-0.256958,-0.202393,0.938843,2.746582,0.610352,-0.610352,2026-04-20T14:57:47.709260+00:00
r6,-0.254639,-0.199707,0.94043,2.929688,0.610352,-0.488281,2026-04-20T14:57:47.739674+00:00
r6,-0.255493,-0.202881,0.938721,2.807617,0.549316,-0.610352,2026-04-20T14:57:47.770284+00:00
r6,-0.254272,-0.201294,0.938965,2.746582,0.549316,-0.427246,2026-04-20T14:57:47.800860+00:00
r6,-0.254272,-0.202148,0.938965,2.746582,0.671387,-0.488281,2026-04-20T14:57:47.831695+00:00
r6,-0.255493,-0.202637,0.939331,2.868652,0.793457,-0.366211,2026-04-20T14:57:47.862401+00:00
r6,-0.255493,-0.199219,0.939087,2.746582,0.671387,-0.488281,2026-04-20T14:57:47.893310+00:00
r6,-0.255737,-0.201538,0.938965,2.868652,0.610352,-0.610352,2026-04-20T14:57:47.923283+00:00
r6,-0.254639,-0.203247,0.93811,2.929688,0.549316,-0.305176,2026-04-20T14:57:47.953703+00:00
r6,-0.255981,-0.200195,0.938599,2.807617,0.610352,-0.488281,2026-04-20T14:57:47.984292+00:00
r6,-0.255737,-0.202637,0.939941,2.746582,0.732422,-0.488281,2026-04-20T14:57:48.014737+00:00
r6,-0.254761,-0.202393,0.939087,2.807617,0.610352,-0.610352,2026-04-20T14:57:48.045315+00:00
r6,-0.255493,-0.199219,0.939209,2.685547,0.549316,-0.427246,2026-04-20T14:57:48.075725+00:00
r6,-0.255615,-0.202515,0.939453,2.868652,0.549316,-0.549316,2026-04-20T14:57:48.105303+00:00
r6,-0.254272,-0.201416,0.939087,2.807617,0.610352,-0.427246,2026-04-20T14:57:48.134741+00:00
r6,-0.25647,-0.199951,0.938965,2.746582,0.549316,-0.610352,2026-04-20T14:57:48.161770+00:00
r6,-0.255859,-0.202515,0.939087,2.807617,0.549316,-0.427246,2026-04-20T14:57:48.192313+00:00
r6,-0.254883,-0.199341,0.939331,2.868652,0.671387,-0.488281,2026-04-20T14:57:48.222757+00:00
r6,-0.255737,-0.199097,0.940674,2.685547,0.732422,-0.488281,2026-04-20T14:57:48.253766+00:00
r6,-0.25769,-0.203735,0.942749,2.746582,1.525879,-0.488281,2026-04-20T14:57:48.284744+00:00
r6,-0.255005,-0.200317,0.939209,2.990723,0.671387,-0.427246,2026-04-20T14:57:48.315742+00:00
r6,-0.254883,-0.199341,0.938721,2.746582,0.366211,-0.427246,2026-04-20T14:57:48.346744+00:00
r6,-0.253906,-0.203125,0.938477,2.929688,0.610352,-0.427246,2026-04-20T14:57:48.376330+00:00
r6,-0.254761,-0.199951,0.939941,2.685547,0.671387,-0.488281,2026-04-20T14:57:48.406758+00:00
r6,-0.254883,-0.200684,0.938354,2.807617,0.549316,-0.549316,2026-04-20T14:57:48.436752+00:00
r6,-0.254761,-0.201782,0.939453,2.685547,0.488281,-0.427246,2026-04-20T14:57:48.467753+00:00
r6,-0.254883,-0.200928,0.938477,2.685547,0.610352,-0.488281,2026-04-20T14:57:48.497762+00:00
r6,-0.254883,-0.202881,0.938843,2.868652,0.488281,-0.549316,2026-04-20T14:57:48.527339+00:00
r6,-0.25354,-0.199463,0.939331,2.563477,0.549316,-0.610352,2026-04-20T14:57:48.557758+00:00
r6,-0.254517,-0.199829,0.939575,2.929688,0.549316,-0.488281,2026-04-20T14:57:48.587822+00:00
r6,-0.254517,-0.202637,0.939087,2.563477,0.671387,-0.427246,2026-04-20T14:57:48.618347+00:00
r6,-0.253906,-0.199341,0.940186,2.746582,0.549316,-0.610352,2026-04-20T14:57:48.648428+00:00
r6,-0.25415,-0.198242,0.938599,2.746582,0.610352,-0.610352,2026-04-20T14:57:48.679831+00:00
r6,-0.254517,-0.202637,0.939453,2.746582,0.671387,-0.427246,2026-04-20T14:57:48.710366+00:00
r6,-0.25354,-0.197754,0.939697,2.624512,0.610352,-0.427246,2026-04-20T14:57:48.740382+00:00
r6,-0.254761,-0.199585,0.938477,2.929688,0.610352,-0.549316,2026-04-20T14:57:48.770831+00:00
r6,-0.253906,-0.202637,0.939087,2.685547,0.549316,-0.427246,2026-04-20T14:57:48.800793+00:00
r6,-0.253906,-0.200928,0.939331,2.807617,0.732422,-0.427246,2026-04-20T14:57:48.831365+00:00
r6,-0.254761,-0.199707,0.938721,2.624512,0.793457,-0.366211,2026-04-20T14:57:48.862377+00:00
r6,-0.254395,-0.201538,0.939819,2.746582,0.732422,-0.488281,2026-04-20T14:57:48.892806+00:00
r6,-0.255005,-0.200806,0.939087,2.807617,0.671387,-0.488281,2026-04-20T14:57:48.923411+00:00
r6,-0.255005,-0.201416,0.939209,2.685547,0.671387,-0.305176,2026-04-20T14:57:48.953812+00:00
r6,-0.253662,-0.200562,0.939575,2.746582,0.549316,-0.427246,2026-04-20T14:57:48.984388+00:00
r6,-0.253784,-0.199341,0.939331,2.746582,0.671387,-0.488281,2026-04-20T14:57:49.015393+00:00
r6,-0.255737,-0.207764,0.968994,2.868652,0.671387,-0.305176,2026-04-20T14:57:49.046396+00:00
r6,-0.235596,-0.204834,0.910522,2.441406,2.13623,-0.12207,2026-04-20T14:57:49.077401+00:00
r6,-0.209106,-0.204102,0.935547,3.295898,-2.929688,-1.708984,2026-04-20T14:57:49.107850+00:00
r6,-0.274902,-0.150146,0.916504,-0.549316,-4.638672,-1.098633,2026-04-20T14:57:49.138832+00:00
r6,-0.182861,-0.146851,0.7948,0.976562,-2.624512,-3.051758,2026-04-20T14:57:49.169420+00:00
r6,-0.299927,-0.230469,1.048706,2.746582,-6.530762,-4.699707,2026-04-20T14:57:49.199411+00:00
r6,-0.224487,-0.179321,0.832153,-1.586914,-6.652832,-3.540039,2026-04-20T14:57:49.231463+00:00
r6,-0.286255,-0.159546,0.888672,0.671387,-5.92041,-4.760742,2026-04-20T14:57:49.262840+00:00
r6,-0.24585,-0.246338,1.042847,2.563477,-6.347656,-5.79834,2026-04-20T14:57:49.293840+00:00
r6,-0.238892,-0.15564,0.777588,-3.90625,-4.577637,-4.821777,2026-04-20T14:57:49.325412+00:00
r6,-0.338379,-0.181152,1.005249,1.525879,-6.835937,-4.943848,2026-04-20T14:57:49.356859+00:00
r6,-0.23877,-0.205811,1.026123,1.220703,-10.070801,-6.286621,2026-04-20T14:57:49.387425+00:00
r6,-0.385498,-0.072266,0.913574,2.319336,-8.972168,-9.460449,2026-04-20T14:57:49.418901+00:00
r6,-0.208984,-0.200317,0.993164,-0.12207,-7.385254,-8.972168,2026-04-20T14:57:49.450424+00:00
r6,-0.395142,-0.192505,0.957642,-2.563477,-18.432617,-7.324219,2026-04-20T14:57:49.482461+00:00
r6,-0.405518,-0.115601,1.040894,-0.12207,-13.793945,-7.69043,2026-04-20T14:57:49.514441+00:00
r6,-0.290771,-0.200195,0.755615,-0.732422,-13.061523,-9.460449,2026-04-20T14:57:49.546442+00:00
r6,-0.379517,-0.123169,0.891357,-7.446289,-13.061523,-9.765625,2026-04-20T14:57:49.578445+00:00
r6,-0.393311,-0.2229,1.064819,0.610352,-18.676758,-10.314941,2026-04-20T14:57:49.609868+00:00
r6,-0.448242,-0.125854,0.863892,-2.868652,-20.629883,-10.437012,2026-04-20T14:57:49.640874+00:00
r6,-0.40918,-0.085693,0.830811,-1.403809,-17.150879,-11.291504,2026-04-20T14:57:49.671451+00:00
r6,-0.431152,-0.18689,1.041626,-1.037598,-21.66748,-11.71875,2026-04-20T14:57:49.701875+00:00
r6,-0.430786,-0.064697,0.835327,-3.723145,-21.362305,-11.71875,2026-04-20T14:57:49.731872+00:00
r6,-0.397583,-0.093628,0.869385,-3.417969,-17.39502,-12.451172,2026-04-20T14:57:49.762221+00:00
r6,-0.406372,-0.073608,0.855591,-2.502441,-21.362305,-11.657715,2026-04-20T14:57:49.792879+00:00
r6,-0.455322,-0.01355,0.831543,-3.78418,-18.676758,-13.305664,2026-04-20T14:57:49.823868+00:00
r6,-0.462646,-0.075806,0.901855,0.488281,-21.179199,-13.916016,2026-04-20T14:57:49.854906+00:00
r6,-0.451538,-0.127197,0.86377,0.610352,-19.40918,-13.427734,2026-04-20T14:57:49.885485+00:00
r6,-0.545654,-0.053711,0.920288,0.305176,-26.000977,-13.73291,2026-04-20T14:57:49.916475+00:00
r6,-0.419434,-0.050049,0.793213,-5.981445,-23.681641,-13.183594,2026-04-20T14:57:49.947485+00:00
r6,-0.485474,-0.078369,0.891846,-4.211426,-31.12793,-14.282227,2026-04-20T14:57:49.978919+00:00
r6,-0.554565,-0.017334,0.822021,2.13623,-26.489258,-14.892578,2026-04-20T14:57:50.009479+00:00
r6,-0.544678,-0.051758,0.774536,3.173828,-29.052734,-14.831543,2026-04-20T14:57:50.040908+00:00
r6,-0.522583,-0.038574,0.804321,1.098633,-33.02002,-14.831543,2026-04-20T14:57:50.070470+00:00
r6,-0.539307,-0.033447,0.741577,2.13623,-29.785156,-14.343262,2026-04-20T14:57:50.101914+00:00
r6,-0.548706,-0.023071,0.758911,2.685547,-30.822754,-16.052246,2026-04-20T14:57:50.132491+00:00
r6,-0.640869,-0.074219,0.799561,2.563477,-35.27832,-14.648438,2026-04-20T14:57:50.162534+00:00
r6,-0.605591,0.021729,0.809937,1.953125,-35.949707,-13.793945,2026-04-20T14:57:50.193514+00:00
r6,-0.619385,0.010498,0.674927,4.760742,-40.527344,-14.221191,2026-04-20T14:57:50.224091+00:00
r6,-0.680176,-0.035156,0.687378,6.103516,-37.109375,-14.953613,2026-04-20T14:57:50.254501+00:00
r6,-0.690552,-0.012085,0.705444,10.070801,-36.804199,-13.000488,2026-04-20T14:57:50.284486+00:00
r6,-0.704224,0.01062,0.726196,6.225586,-35.522461,-13.366699,2026-04-20T14:57:50.315511+00:00
r6,-0.672119,0.022461,0.653687,4.516602,-37.658691,-14.038086,2026-04-20T14:57:50.343928+00:00
r6,-0.786987,0.021729,0.710205,5.67627,-34.667969,-15.319824,2026-04-20T14:57:50.374508+00:00
r6,-0.687744,-0.016357,0.744507,4.394531,-40.222168,-13.793945,2026-04-20T14:57:50.404519+00:00
r6,-0.730713,-0.003784,0.620728,11.901855,-39.672852,-10.742188,2026-04-20T14:57:50.435960+00:00
r6,-0.753662,-0.038818,0.546875,8.483887,-40.466309,-10.192871,2026-04-20T14:57:50.466939+00:00
r6,-0.802246,0.003174,0.559814,12.268066,-32.409668,-11.169434,2026-04-20T14:57:50.497515+00:00
r6,-0.777222,0.001343,0.511108,11.901855,-31.677246,-10.314941,2026-04-20T14:57:50.527954+00:00
r6,-0.764404,-0.026123,0.500122,12.512207,-31.677246,-11.352539,2026-04-20T14:57:50.559526+00:00
r6,-0.8927,-0.017334,0.589478,17.700195,-38.574219,-8.300781,2026-04-20T14:57:50.590949+00:00
r6,-0.843506,-0.027832,0.500977,9.887695,-31.37207,-8.483887,2026-04-20T14:57:50.622538+00:00
r6,-0.855957,0.032959,0.518066,10.925293,-30.273437,-8.850098,2026-04-20T14:57:50.652950+00:00
r6,-0.898437,0.033203,0.517944,12.756348,-30.578613,-6.652832,2026-04-20T14:57:50.683966+00:00
r6,-0.894897,0.029175,0.529053,10.742188,-31.494141,-8.666992,2026-04-20T14:57:50.714959+00:00
r6,-0.976807,0.005249,0.552734,11.474609,-29.724121,-8.605957,2026-04-20T14:57:50.745972+00:00
r6,-0.88855,-0.015137,0.436646,15.808105,-26.000977,-6.286621,2026-04-20T14:57:50.776986+00:00
r6,-0.992187,0.013306,0.510132,8.911133,-29.174805,-8.239746,2026-04-20T14:57:50.807560+00:00
r6,-0.916748,0.01355,0.393799,10.498047,-24.780273,-5.554199,2026-04-20T14:57:50.838001+00:00
r6,-0.848633,0.006836,0.341064,12.390137,-25.146484,-5.126953,2026-04-20T14:57:50.867989+00:00
r6,-0.846191,-0.0448,0.470093,14.831543,-23.193359,-3.967285,2026-04-20T14:57:50.899567+00:00
r6,-0.912476,-0.001099,0.359863,9.643555,-18.859863,-4.882812,2026-04-20T14:57:50.930631+00:00
r6,-0.87085,-0.016602,0.290771,11.352539,-16.357422,-5.126953,2026-04-20T14:57:50.962044+00:00
r6,-0.942017,0.020142,0.353638,12.878418,-18.920898,-3.356934,2026-04-20T14:57:50.992987+00:00
r6,-0.983521,0.022705,0.400146,12.084961,-18.432617,-3.540039,2026-04-20T14:57:51.024008+00:00
r6,-0.965942,-0.004272,0.35083,11.901855,-20.141602,-3.967285,2026-04-20T14:57:51.055582+00:00
r6,-0.980713,-0.028687,0.379883,12.634277,-14.709473,-2.563477,2026-04-20T14:57:51.087055+00:00
r6,-0.958008,-0.012451,0.325439,5.004883,-11.047363,-2.990723,2026-04-20T14:57:51.118587+00:00
r6,-0.917725,-0.023071,0.263306,1.77002,-10.192871,-5.615234,2026-04-20T14:57:51.150008+00:00
r6,-0.963379,0.00354,0.308472,7.202148,-9.277344,-3.479004,2026-04-20T14:57:51.180013+00:00
r6,-1.017212,0.029419,0.344849,8.605957,-10.314941,-0.976562,2026-04-20T14:57:51.211066+00:00
r6,-0.915405,-0.001709,0.259155,6.469727,-7.019043,-3.112793,2026-04-20T14:57:51.242600+00:00
r6,-0.955811,-0.017822,0.287964,7.080078,-4.455566,-2.807617,2026-04-20T14:57:51.274011+00:00
r6,-0.968994,-0.036377,0.259033,0.793457,-1.953125,-0.671387,2026-04-20T14:57:51.305025+00:00
r6,-0.936768,-0.019531,0.264771,1.647949,0.610352,-1.098633,2026-04-20T14:57:51.335035+00:00
r6,-0.955444,-0.020996,0.342407,5.065918,-1.953125,0.061035,2026-04-20T14:57:51.365613+00:00
r6,-0.969604,0.006348,0.213623,3.051758,-0.732422,-0.854492,2026-04-20T14:57:51.396638+00:00
r6,-0.971802,0.005371,0.301636,3.540039,-5.554199,0.12207,2026-04-20T14:57:51.426038+00:00
r6,-0.888184,0.023315,0.220337,2.929688,-6.652832,0.549316,2026-04-20T14:57:51.456622+00:00
r6,-0.998291,0.002686,0.285156,2.868652,-3.051758,-0.366211,2026-04-20T14:57:51.487041+00:00
r6,-0.953125,0.014526,0.290283,3.051758,0.12207,-0.671387,2026-04-20T14:57:51.517627+00:00
r6,-0.981323,0.010986,0.279663,2.929688,-0.12207,-0.610352,2026-04-20T14:57:51.548051+00:00
r6,-0.952026,0.008179,0.275146,2.807617,0.793457,-0.854492,2026-04-20T14:57:51.578052+00:00
r6,-0.957153,0.00769,0.277344,2.929688,0.427246,-0.671387,2026-04-20T14:57:51.608682+00:00
r6,-0.973022,0.010986,0.278198,2.746582,0.732422,-0.732422,2026-04-20T14:57:51.639055+00:00
r6,-0.957397,0.008545,0.278809,2.929688,0.488281,-0.671387,2026-04-20T14:57:51.669639+00:00
r6,-0.972412,0.008301,0.276001,2.807617,0.366211,-0.610352,2026-04-20T14:57:51.700066+00:00
r6,-0.955078,0.007935,0.276367,2.807617,0.732422,-0.671387,2026-04-20T14:57:51.730075+00:00
r6,-0.968628,0.010986,0.275391,2.807617,0.488281,-0.610352,2026-04-20T14:57:51.760647+00:00
r6,-0.966553,0.010742,0.278809,2.807617,0.610352,-0.732422,2026-04-20T14:57:51.791081+00:00
r6,-0.961914,0.007324,0.278564,2.868652,0.488281,-0.671387,2026-04-20T14:57:51.819639+00:00
r6,-0.967407,0.010986,0.276733,2.746582,0.549316,-0.610352,2026-04-20T14:57:51.849064+00:00
r6,-0.959106,0.008911,0.276123,2.807617,0.549316,-0.610352,2026-04-20T14:57:51.879389+00:00
r6,-0.965454,0.010986,0.277588,2.807617,0.427246,-0.610352,2026-04-20T14:57:51.909393+00:00
r6,-0.965454,0.009644,0.276489,2.929688,0.610352,-0.793457,2026-04-20T14:57:51.938664+00:00
r6,-0.960693,0.009644,0.275635,3.051758,0.427246,-0.732422,2026-04-20T14:57:51.969082+00:00
r6,-0.969604,0.011353,0.276245,2.868652,0.610352,-0.671387,2026-04-20T14:57:51.999139+00:00
r6,-0.959717,0.009521,0.276978,2.929688,0.671387,-0.671387,2026-04-20T14:57:52.028668+00:00
r6,-0.966919,0.011597,0.276489,2.685547,0.671387,-0.610352,2026-04-20T14:57:52.058684+00:00
r6,-0.961426,0.009521,0.276855,2.929688,0.549316,-0.671387,2026-04-20T14:57:52.088838+00:00
r6,-0.962402,0.008911,0.277344,2.868652,0.427246,-0.610352,2026-04-20T14:57:52.119091+00:00
r6,-0.966675,0.010864,0.276245,2.990723,0.549316,-0.671387,2026-04-20T14:57:52.148679+00:00
r6,-0.96106,0.009033,0.277588,2.807617,0.549316,-0.732422,2026-04-20T14:57:52.178700+00:00
r6,-0.969238,0.009888,0.276123,2.868652,0.671387,-0.671387,2026-04-20T14:57:52.208134+00:00
r6,-0.959595,0.009277,0.277344,2.807617,0.732422,-0.610352,2026-04-20T14:57:52.237105+00:00
r6,-0.966064,0.009521,0.2771,2.990723,0.610352,-0.610352,2026-04-20T14:57:52.267687+00:00
r6,-0.963623,0.01123,0.277344,2.807617,0.671387,-0.549316,2026-04-20T14:57:52.297108+00:00
r6,-0.962646,0.009521,0.276978,2.807617,0.549316,-0.610352,2026-04-20T14:57:52.326693+00:00
r6,-0.967041,0.009521,0.27771,2.868652,0.671387,-0.732422,2026-04-20T14:57:52.357109+00:00
r6,-0.96106,0.009155,0.276611,2.807617,0.610352,-0.488281,2026-04-20T14:57:52.386765+00:00
r6,-0.968262,0.010742,0.277344,2.746582,0.549316,-0.671387,2026-04-20T14:57:52.416740+00:00
r6,-0.962402,0.009399,0.277222,2.807617,0.549316,-0.549316,2026-04-20T14:57:52.446704+00:00
r6,-0.965332,0.009277,0.275757,2.929688,0.610352,-0.671387,2026-04-20T14:57:52.476691+00:00
r6,-0.963745,0.010254,0.274414,2.746582,0.671387,-0.610352,2026-04-20T14:57:52.506706+00:00
r6,-0.963013,0.009155,0.277954,2.807617,0.610352,-0.610352,2026-04-20T14:57:52.537129+00:00
r6,-0.967041,0.01123,0.275879,2.807617,0.854492,-0.610352,2026-04-20T14:57:52.567130+00:00
r6,-0.962891,0.009766,0.276978,2.868652,0.671387,-0.549316,2026-04-20T14:57:52.596705+00:00
r6,-0.966187,0.010132,0.276001,2.807617,0.610352,-0.671387,2026-04-20T14:57:52.626133+00:00
r6,-0.96228,0.01123,0.275024,2.929688,0.610352,-0.610352,2026-04-20T14:57:52.656145+00:00
r6,-0.963867,0.009888,0.276245,2.746582,0.610352,-0.488281,2026-04-20T14:57:52.686722+00:00
r6,-0.965698,0.008911,0.276611,2.685547,0.793457,-0.610352,2026-04-20T14:57:52.715149+00:00
r6,-0.962891,0.009521,0.276245,2.563477,0.610352,-0.488281,2026-04-20T14:57:52.745152+00:00
r6,-0.966309,0.010986,0.276367,2.929688,0.488281,-0.610352,2026-04-20T14:57:52.775152+00:00
r6,-0.963745,0.010742,0.276123,2.807617,0.610352,-0.488281,2026-04-20T14:57:52.805154+00:00
r6,-0.965332,0.011353,0.275513,2.868652,0.671387,-0.549316,2026-04-20T14:57:52.835748+00:00
r6,-0.964478,0.009033,0.276855,2.807617,0.610352,-0.671387,2026-04-20T14:57:52.866189+00:00
r6,-0.964111,0.010132,0.276611,2.685547,0.549316,-0.610352,2026-04-20T14:57:52.896172+00:00
r6,-0.966553,0.010376,0.275635,2.746582,0.732422,-0.671387,2026-04-20T14:57:52.924775+00:00
r6,-0.963501,0.010376,0.276245,2.807617,0.732422,-0.732422,2026-04-20T14:57:52.955184+00:00
r6,-0.964355,0.009155,0.276367,2.746582,0.610352,-0.488281,2026-04-20T14:57:52.985759+00:00
r6,-0.964478,0.009888,0.276123,2.624512,0.549316,-0.488281,2026-04-20T14:57:53.015786+00:00
r6,-0.964844,0.010254,0.274902,2.685547,0.549316,-0.549316,2026-04-20T14:57:53.046190+00:00
r6,-0.964966,0.008667,0.276001,2.807617,0.549316,-0.610352,2026-04-20T14:57:53.076770+00:00
r6,-0.963501,0.01001,0.275513,2.807617,0.427246,-0.671387,2026-04-20T14:57:53.107191+00:00
r6,-0.965088,0.010254,0.275757,2.868652,0.488281,-0.671387,2026-04-20T14:57:53.137778+00:00
r6,-0.962769,0.010132,0.276245,2.746582,0.671387,-0.671387,2026-04-20T14:57:53.168197+00:00
r6,-0.965454,0.010498,0.276367,2.807617,0.610352,-0.610352,2026-04-20T14:57:53.198781+00:00
r6,-0.964233,0.01001,0.277222,2.868652,0.610352,-0.671387,2026-04-20T14:57:53.228783+00:00
r6,-0.96521,0.009644,0.276367,2.807617,0.610352,-0.671387,2026-04-20T14:57:53.259204+00:00
r6,-0.964722,0.010742,0.276489,2.807617,0.671387,-0.610352,2026-04-20T14:57:53.289786+00:00
r6,-0.963013,0.008789,0.277344,2.868652,0.549316,-0.488281,2026-04-20T14:57:53.320235+00:00
r6,-0.965576,0.01001,0.276489,2.624512,0.610352,-0.671387,2026-04-20T14:57:53.350214+00:00
r6,-0.963867,0.011108,0.275513,2.807617,0.732422,-0.488281,2026-04-20T14:57:53.380784+00:00
r6,-0.9646,0.01001,0.274902,2.685547,0.549316,-0.549316,2026-04-20T14:57:53.411220+00:00
r6,-0.964844,0.009766,0.276611,2.746582,0.549316,-0.488281,2026-04-20T14:57:53.440826+00:00
r6,-0.963989,0.010986,0.275146,2.868652,0.610352,-0.610352,2026-04-20T14:57:53.470026+00:00
r6,-0.964966,0.009521,0.276611,2.929688,0.488281,-0.610352,2026-04-20T14:57:53.500227+00:00
r6,-0.964111,0.010376,0.276978,2.685547,0.488281,-0.671387,2026-04-20T14:57:53.530231+00:00
r6,-0.96521,0.010132,0.276489,2.807617,0.610352,-0.732422,2026-04-20T14:57:53.560817+00:00
r6,-0.963501,0.009277,0.276367,2.868652,0.793457,-0.610352,2026-04-20T14:57:53.591277+00:00
r6,-0.964966,0.011353,0.275635,2.807617,0.732422,-0.671387,2026-04-20T14:57:53.621818+00:00
r6,-0.964355,0.007935,0.276978,2.746582,0.610352,-0.610352,2026-04-20T14:57:53.651233+00:00
r6,-0.964478,0.010132,0.275269,2.807617,0.671387,-0.549316,2026-04-20T14:57:53.681847+00:00
r6,-0.965332,0.01001,0.275391,2.685547,0.549316,-0.610352,2026-04-20T14:57:53.712236+00:00
r6,-0.964111,0.009277,0.275513,2.807617,0.610352,-0.671387,2026-04-20T14:57:53.742828+00:00
r6,-0.965088,0.009521,0.276978,2.807617,0.671387,-0.610352,2026-04-20T14:57:53.773253+00:00
r6,-0.964233,0.008545,0.276733,2.929688,0.671387,-0.732422,2026-04-20T14:57:53.803837+00:00
r6,-0.963867,0.009521,0.276367,2.807617,0.488281,-0.610352,2026-04-20T14:57:53.834265+00:00
r6,-0.964722,0.011108,0.276123,2.685547,0.732422,-0.549316,2026-04-20T14:57:53.864259+00:00
r6,-0.964478,0.008057,0.276367,2.868652,0.671387,-0.671387,2026-04-20T14:57:53.894261+00:00
r6,-0.965576,0.009399,0.276855,2.929688,0.610352,-0.671387,2026-04-20T14:57:53.924261+00:00
r6,-0.964111,0.010376,0.275269,2.868652,0.549316,-0.610352,2026-04-20T14:57:53.954851+00:00
r6,-0.964966,0.010132,0.275269,2.685547,0.610352,-0.671387,2026-04-20T14:57:53.984850+00:00
r6,-0.963501,0.009521,0.275879,2.807617,0.488281,-0.610352,2026-04-20T14:57:54.015266+00:00
r6,-0.9646,0.010254,0.275879,2.746582,0.610352,-0.671387,2026-04-20T14:57:54.045262+00:00
r6,-0.965332,0.010254,0.276611,2.746582,0.549316,-0.671387,2026-04-20T14:57:54.074864+00:00
r6,-0.964844,0.009644,0.276489,2.807617,0.610352,-0.549316,2026-04-20T14:57:54.104273+00:00
r6,-0.964722,0.011475,0.275024,2.746582,0.549316,-0.671387,2026-04-20T14:57:54.133862+00:00
r6,-0.964966,0.01001,0.276245,2.868652,0.549316,-0.793457,2026-04-20T14:57:54.163891+00:00
r6,-0.964844,0.008423,0.27771,2.807617,0.610352,-0.488281,2026-04-20T14:57:54.193280+00:00
r6,-0.96521,0.009521,0.275391,2.868652,0.488281,-0.671387,2026-04-20T14:57:54.222858+00:00
r6,-0.964478,0.010376,0.276367,2.624512,0.854492,-0.732422,2026-04-20T14:57:54.252294+00:00
r6,-0.964722,0.010132,0.276489,2.929688,0.671387,-0.610352,2026-04-20T14:57:54.281868+00:00
r6,-0.964966,0.009644,0.275513,2.685547,0.732422,-0.671387,2026-04-20T14:57:54.311870+00:00
r6,-0.963867,0.010376,0.275269,2.868652,0.610352,-0.671387,2026-04-20T14:57:54.341296+00:00
r6,-0.964966,0.010864,0.275757,2.807617,0.610352,-0.610352,2026-04-20T14:57:54.370307+00:00
r6,-0.9646,0.010498,0.275635,2.929688,0.610352,-0.610352,2026-04-20T14:57:54.399879+00:00
r6,-0.964233,0.009033,0.277588,2.624512,0.671387,-0.671387,2026-04-20T14:57:54.430303+00:00
r6,-0.9646,0.01001,0.275269,2.746582,0.671387,-0.732422,2026-04-20T14:57:54.460891+00:00
r6,-0.964478,0.009644,0.276123,2.746582,0.488281,-0.549316,2026-04-20T14:57:54.490893+00:00
r6,-0.96521,0.009888,0.276855,2.746582,0.671387,-0.610352,2026-04-20T14:57:54.520315+00:00
r6,-0.965088,0.010132,0.275757,2.807617,0.549316,-0.610352,2026-04-20T14:57:54.548897+00:00
r6,-0.964844,0.010864,0.275757,2.746582,0.549316,-0.610352,2026-04-20T14:57:54.578894+00:00
r6,-0.96521,0.01062,0.274902,2.868652,0.549316,-0.671387,2026-04-20T14:57:54.609329+00:00
r6,-0.964722,0.010864,0.275635,2.746582,0.549316,-0.549316,2026-04-20T14:57:54.638887+00:00
r6,-0.965332,0.010132,0.275146,2.746582,0.793457,-0.671387,2026-04-20T14:57:54.668898+00:00
r6,-0.9646,0.008667,0.276245,2.868652,0.671387,-0.671387,2026-04-20T14:57:54.698086+00:00
r6,-0.963623,0.009644,0.277222,2.685547,0.488281,-0.549316,2026-04-20T14:57:54.728378+00:00
r6,-0.965088,0.009033,0.275146,2.746582,0.671387,-0.488281,2026-04-20T14:57:54.758919+00:00
r6,-0.965088,0.009644,0.2771,2.685547,0.732422,-0.610352,2026-04-20T14:57:54.788926+00:00
r6,-0.964966,0.008911,0.276733,2.746582,0.671387,-0.610352,2026-04-20T14:57:54.817921+00:00
r6,-0.964355,0.009644,0.275757,2.685547,0.488281,-0.793457,2026-04-20T14:57:54.847342+00:00
r6,-0.963989,0.009521,0.275513,2.624512,0.488281,-0.549316,2026-04-20T14:57:54.877349+00:00
r6,-0.9646,0.010986,0.276001,2.868652,0.488281,-0.610352,2026-04-20T14:57:54.907355+00:00
r6,-0.96521,0.010742,0.276489,2.685547,0.671387,-0.610352,2026-04-20T14:57:54.937931+00:00
r6,-0.963623,0.009033,0.276001,2.746582,0.610352,-0.671387,2026-04-20T14:57:54.968362+00:00
r6,-0.964844,0.010254,0.274902,2.746582,0.549316,-0.549316,2026-04-20T14:57:54.998939+00:00
r6,-0.964722,0.010132,0.275635,2.746582,0.610352,-0.549316,2026-04-20T14:57:55.027997+00:00
r6,-0.964722,0.009644,0.276489,2.746582,0.488281,-0.610352,2026-04-20T14:57:55.057367+00:00
r6,-0.965332,0.010132,0.275635,2.685547,0.488281,-0.671387,2026-04-20T14:57:55.087957+00:00
r6,-0.9646,0.010132,0.276123,2.746582,0.549316,-0.549316,2026-04-20T14:57:55.118375+00:00
r6,-0.964844,0.010742,0.275391,2.746582,0.427246,-0.610352,2026-04-20T14:57:55.148370+00:00
r6,-0.963501,0.009888,0.275391,2.624512,0.549316,-0.610352,2026-04-20T14:57:55.178978+00:00
r6,-0.964966,0.008667,0.276611,2.807617,0.488281,-0.732422,2026-04-20T14:57:55.209435+00:00
r6,-0.962769,0.010376,0.275269,2.807617,0.610352,-0.610352,2026-04-20T14:57:55.239374+00:00
r6,-0.965942,0.011475,0.275024,2.807617,0.488281,-0.671387,2026-04-20T14:57:55.268969+00:00
r6,-0.964478,0.008911,0.274902,2.807617,0.732422,-0.671387,2026-04-20T14:57:55.299395+00:00
r6,-0.965454,0.009521,0.276855,2.746582,0.671387,-0.549316,2026-04-20T14:57:55.329399+00:00
r6,-0.964233,0.010742,0.275391,2.807617,0.671387,-0.732422,2026-04-20T14:57:55.358973+00:00
r6,-0.964478,0.01001,0.276123,2.746582,0.488281,-0.671387,2026-04-20T14:57:55.388847+00:00
r6,-0.964478,0.01062,0.276611,2.563477,0.488281,-0.671387,2026-04-20T14:57:55.419396+00:00
r6,-0.964478,0.009888,0.275269,2.685547,0.671387,-0.732422,2026-04-20T14:57:55.448988+00:00
r6,-0.965332,0.009277,0.276123,2.685547,0.671387,-0.671387,2026-04-20T14:57:55.478418+00:00
r6,-0.964722,0.008789,0.276001,2.807617,0.610352,-0.854492,2026-04-20T14:57:55.506024+00:00
r6,-0.965454,0.011719,0.275269,2.807617,0.549316,-0.610352,2026-04-20T14:57:55.534023+00:00
r6,-0.964966,0.010986,0.275879,2.807617,0.610352,-0.610352,2026-04-20T14:57:55.563017+00:00
r6,-0.964844,0.009644,0.276733,2.807617,0.549316,-0.610352,2026-04-20T14:57:55.590455+00:00
r6,-0.965698,0.009521,0.275391,2.807617,0.488281,-0.854492,2026-04-20T14:57:55.619428+00:00
r6,-0.9646,0.009766,0.275391,2.807617,0.610352,-0.610352,2026-04-20T14:57:55.650003+00:00
r6,-0.964844,0.009766,0.276489,2.807617,0.671387,-0.793457,2026-04-20T14:57:55.676430+00:00
r6,-0.963867,0.007935,0.275391,2.746582,0.610352,-0.793457,2026-04-20T14:57:55.705864+00:00
r6,-0.965698,0.010498,0.27478,2.807617,0.488281,-0.732422,2026-04-20T14:57:55.736421+00:00
r6,-0.965088,0.010132,0.276245,2.746582,0.671387,-0.793457,2026-04-20T14:57:55.766013+00:00
r6,-0.964233,0.008789,0.275757,2.868652,0.732422,-0.732422,2026-04-20T14:57:55.794463+00:00
r6,-0.964844,0.010254,0.274658,2.807617,0.549316,-0.610352,2026-04-20T14:57:55.824027+00:00
r6,-0.964478,0.01062,0.27478,2.868652,0.610352,-0.671387,2026-04-20T14:57:55.852049+00:00
r6,-0.963989,0.009521,0.275513,2.746582,0.610352,-0.549316,2026-04-20T14:57:55.880435+00:00
r6,-0.964722,0.010498,0.275879,2.685547,0.732422,-0.793457,2026-04-20T14:57:55.909440+00:00
r6,-0.964844,0.010742,0.274658,2.746582,0.671387,-0.610352,2026-04-20T14:57:55.939376+00:00
r6,-0.964966,0.009033,0.275635,2.868652,0.549316,-0.610352,2026-04-20T14:57:55.969105+00:00
r6,-0.962646,0.008789,0.275513,2.807617,0.549316,-0.549316,2026-04-20T14:57:55.998044+00:00
r6,-0.964478,0.010132,0.275513,2.929688,0.610352,-0.610352,2026-04-20T14:57:56.026461+00:00
r6,-0.96521,0.01001,0.276001,2.807617,0.610352,-0.610352,2026-04-20T14:57:56.056147+00:00
r6,-0.964844,0.009888,0.275879,2.746582,0.549316,-0.793457,2026-04-20T14:57:56.084043+00:00
r6,-0.964478,0.009888,0.275879,2.746582,0.427246,-0.610352,2026-04-20T14:57:56.112455+00:00
r6,-0.965088,0.010864,0.275513,2.624512,0.610352,-0.732422,2026-04-20T14:57:56.140509+00:00
r6,-0.964966,0.008667,0.276733,2.868652,0.732422,-0.610352,2026-04-20T14:57:56.170058+00:00
r6,-0.963257,0.010498,0.274536,2.746582,0.610352,-0.732422,2026-04-20T14:57:56.198478+00:00
r6,-0.965332,0.010498,0.274658,2.685547,0.427246,-0.732422,2026-04-20T14:57:56.227465+00:00
r6,-0.964844,0.009766,0.275513,2.746582,0.549316,-0.793457,2026-04-20T14:57:56.254485+00:00
r6,-0.964478,0.010742,0.275635,2.685547,0.488281,-0.671387,2026-04-20T14:57:56.283097+00:00
r6,-0.965576,0.01123,0.275513,2.563477,0.488281,-0.610352,2026-04-20T14:57:56.311514+00:00
r6,-0.964233,0.009644,0.27478,2.685547,0.488281,-0.732422,2026-04-20T14:57:56.340515+00:00
r6,-0.964233,0.009521,0.275146,2.624512,0.610352,-0.671387,2026-04-20T14:57:56.368481+00:00
r6,-0.963867,0.009033,0.276855,2.746582,0.549316,-0.671387,2026-04-20T14:57:56.396075+00:00
r6,-0.9646,0.009644,0.275879,2.685547,0.549316,-0.671387,2026-04-20T14:57:56.424505+00:00
r6,-0.964111,0.010132,0.275513,2.685547,0.549316,-0.610352,2026-04-20T14:57:56.453072+00:00
r6,-0.964844,0.010376,0.275757,2.746582,0.610352,-0.732422,2026-04-20T14:57:56.481506+00:00
r6,-0.963867,0.008789,0.275269,2.685547,0.366211,-0.732422,2026-04-20T14:57:56.511085+00:00
r6,-0.964966,0.009766,0.274902,2.685547,0.427246,-0.793457,2026-04-20T14:57:56.540106+00:00
r6,-0.965454,0.010986,0.275024,2.624512,0.427246,-0.732422,2026-04-20T14:57:56.568494+00:00
r6,-0.964844,0.007935,0.276489,2.563477,0.610352,-0.610352,2026-04-20T14:57:56.598516+00:00
r6,-0.964233,0.01001,0.275024,2.807617,0.610352,-0.549316,2026-04-20T14:57:56.626503+00:00
r6,-0.963989,0.012085,0.275024,2.746582,0.610352,-0.610352,2026-04-20T14:57:56.655534+00:00
r6,-0.965332,0.009521,0.276978,2.868652,0.671387,-0.671387,2026-04-20T14:57:56.685524+00:00
r6,-0.96521,0.01001,0.275757,2.624512,0.549316,-0.610352,2026-04-20T14:57:56.713509+00:00
r6,-0.964722,0.011353,0.27478,2.807617,0.488281,-0.610352,2026-04-20T14:57:56.741553+00:00
r6,-0.963989,0.008789,0.275513,2.868652,0.610352,-0.610352,2026-04-20T14:57:56.769556+00:00
r6,-0.96521,0.009888,0.275879,2.746582,0.549316,-0.732422,2026-04-20T14:57:56.797528+00:00
r6,-0.963867,0.009399,0.276001,2.685547,0.488281,-0.732422,2026-04-20T14:57:56.827543+00:00
r6,-0.964844,0.010498,0.275757,2.746582,0.549316,-0.732422,2026-04-20T14:57:56.857196+00:00
r6,-0.964966,0.01001,0.276733,2.746582,0.671387,-0.610352,2026-04-20T14:57:56.885496+00:00
r6,-0.96521,0.010376,0.274414,2.868652,0.610352,-0.854492,2026-04-20T14:57:56.914536+00:00
r6,-0.9646,0.010498,0.275635,2.929688,0.427246,-0.549316,2026-04-20T14:57:56.945112+00:00
r6,-0.964478,0.009888,0.275513,2.746582,0.549316,-0.671387,2026-04-20T14:57:56.975538+00:00
r6,-0.964233,0.010376,0.275269,2.868652,0.671387,-0.488281,2026-04-20T14:57:57.005582+00:00
r6,-0.965088,0.01123,0.275513,2.746582,0.549316,-0.671387,2026-04-20T14:57:57.035535+00:00
r6,-0.963989,0.009155,0.276123,2.807617,0.488281,-0.610352,2026-04-20T14:57:57.066125+00:00
r6,-0.963989,0.008545,0.276367,2.746582,0.610352,-0.671387,2026-04-20T14:57:57.096559+00:00
r6,-0.964966,0.010742,0.275879,2.807617,0.549316,-0.671387,2026-04-20T14:57:57.126140+00:00
r6,-0.96582,0.009888,0.275635,2.807617,0.610352,-0.549316,2026-04-20T14:57:57.155630+00:00
r6,-0.964233,0.008911,0.276245,2.807617,0.610352,-0.610352,2026-04-20T14:57:57.186151+00:00
r6,-0.963379,0.01001,0.275513,2.868652,0.610352,-0.549316,2026-04-20T14:57:57.216150+00:00
r6,-0.96521,0.008423,0.275879,2.807617,0.305176,-0.671387,2026-04-20T14:57:57.246621+00:00
r6,-0.96521,0.009766,0.274902,2.746582,0.610352,-0.610352,2026-04-20T14:57:57.276575+00:00
r6,-0.965088,0.009033,0.274902,2.685547,0.610352,-0.549316,2026-04-20T14:57:57.307162+00:00
r6,-0.965332,0.009155,0.276001,2.868652,0.610352,-0.610352,2026-04-20T14:57:57.337158+00:00
r6,-0.964355,0.009888,0.275513,2.685547,0.610352,-0.671387,2026-04-20T14:57:57.367603+00:00
r6,-0.964966,0.010498,0.275024,2.807617,0.671387,-0.549316,2026-04-20T14:57:57.398188+00:00
r6,-0.96521,0.01001,0.275513,2.746582,0.732422,-0.732422,2026-04-20T14:57:57.428590+00:00
r6,-0.965576,0.010376,0.275635,2.746582,0.671387,-0.671387,2026-04-20T14:57:57.459163+00:00
r6,-0.965088,0.010254,0.276123,2.746582,0.671387,-0.610352,2026-04-20T14:57:57.489580+00:00
r6,-0.964355,0.010132,0.274902,2.807617,0.793457,-0.610352,2026-04-20T14:57:57.519181+00:00
r6,-0.964844,0.009155,0.275757,2.807617,0.671387,-0.854492,2026-04-20T14:57:57.548589+00:00
r6,-0.963989,0.010132,0.276611,2.868652,0.549316,-0.793457,2026-04-20T14:57:57.578603+00:00
r6,-0.964355,0.011108,0.275513,2.746582,0.732422,-0.671387,2026-04-20T14:57:57.608170+00:00
r6,-0.965454,0.010376,0.275391,2.624512,0.610352,-0.671387,2026-04-20T14:57:57.638609+00:00
r6,-0.964355,0.009155,0.276001,2.807617,0.610352,-0.793457,2026-04-20T14:57:57.668193+00:00
r6,-0.964844,0.01001,0.275024,2.685547,0.671387,-0.732422,2026-04-20T14:57:57.698194+00:00
r6,-0.964355,0.009766,0.275146,2.807617,0.610352,-0.610352,2026-04-20T14:57:57.727628+00:00
r6,-0.965088,0.010132,0.27478,2.746582,0.671387,-0.732422,2026-04-20T14:57:57.757201+00:00
r6,-0.96521,0.01062,0.275879,2.807617,0.732422,-0.610352,2026-04-20T14:57:57.787203+00:00
r6,-0.964966,0.009033,0.276001,2.746582,0.671387,-0.671387,2026-04-20T14:57:57.817204+00:00
r6,-0.964722,0.009644,0.276245,2.685547,0.610352,-0.610352,2026-04-20T14:57:57.846208+00:00
r6,-0.96521,0.010498,0.275269,2.929688,0.671387,-0.671387,2026-04-20T14:57:57.876197+00:00
r6,-0.965088,0.010498,0.274658,2.868652,0.732422,-0.610352,2026-04-20T14:57:57.906214+00:00
r6,-0.963501,0.009766,0.276245,2.868652,0.488281,-0.671387,2026-04-20T14:57:57.935227+00:00
r6,-0.965088,0.008545,0.275635,2.746582,0.488281,-0.671387,2026-04-20T14:57:57.965627+00:00
r6,-0.964844,0.009766,0.275024,2.746582,0.549316,-0.732422,2026-04-20T14:57:57.995210+00:00
r6,-0.964478,0.01001,0.275513,2.807617,0.793457,-0.549316,2026-04-20T14:57:58.025071+00:00
r6,-0.965576,0.010132,0.275513,2.685547,0.488281,-0.671387,2026-04-20T14:57:58.055234+00:00
r6,-0.964722,0.008545,0.276001,2.868652,0.732422,-0.610352,2026-04-20T14:57:58.083650+00:00
r6,-0.964233,0.009521,0.275513,2.746582,0.549316,-0.732422,2026-04-20T14:57:58.112651+00:00
r6,-0.964111,0.009888,0.276001,2.746582,0.671387,-0.793457,2026-04-20T14:57:58.142229+00:00
r6,-0.964966,0.010376,0.275513,2.868652,0.610352,-0.671387,2026-04-20T14:57:58.171673+00:00
r6,-0.963623,0.010986,0.275391,2.807617,0.610352,-0.671387,2026-04-20T14:57:58.201655+00:00
r6,-0.9646,0.007935,0.275024,2.868652,0.671387,-0.793457,2026-04-20T14:57:58.231236+00:00
r6,-0.964478,0.010132,0.27417,2.929688,0.549316,-0.671387,2026-04-20T14:57:58.260663+00:00
r6,-0.965332,0.009888,0.276367,2.807617,0.671387,-0.671387,2026-04-20T14:57:58.290731+00:00
r6,-0.965698,0.009888,0.274902,2.807617,0.610352,-0.549316,2026-04-20T14:57:58.320668+00:00
r6,-0.96582,0.01123,0.275146,2.685547,0.671387,-0.732422,2026-04-20T14:57:58.350665+00:00
r6,-0.964233,0.010376,0.276123,2.746582,0.610352,-0.732422,2026-04-20T14:57:58.380674+00:00
r6,-0.964844,0.009888,0.275146,2.990723,0.671387,-0.671387,2026-04-20T14:57:58.410272+00:00
r6,-0.964722,0.009277,0.275146,2.807617,0.732422,-0.488281,2026-04-20T14:57:58.440253+00:00
r6,-0.963623,0.009033,0.276978,2.746582,0.671387,-0.671387,2026-04-20T14:57:58.469668+00:00
r6,-0.965088,0.009888,0.275757,2.746582,0.610352,-0.610352,2026-04-20T14:57:58.499277+00:00
r6,-0.964966,0.009644,0.275757,2.807617,0.549316,-0.610352,2026-04-20T14:57:58.528669+00:00
r6,-0.964722,0.009644,0.275635,2.990723,0.488281,-0.671387,2026-04-20T14:57:58.558672+00:00
r6,-0.9646,0.010254,0.275635,2.624512,0.793457,-0.793457,2026-04-20T14:57:58.588866+00:00
r6,-0.964722,0.010742,0.274414,2.807617,0.671387,-0.732422,2026-04-20T14:57:58.619741+00:00
r6,-0.963867,0.009033,0.276123,2.807617,0.488281,-0.610352,2026-04-20T14:57:58.649691+00:00
r6,-0.963867,0.009521,0.274658,2.685547,0.549316,-0.793457,2026-04-20T14:57:58.680279+00:00
r6,-0.965698,0.009521,0.275757,2.807617,0.732422,-0.793457,2026-04-20T14:57:58.709700+00:00
r6,-0.964722,0.009033,0.275513,2.746582,0.671387,-0.488281,2026-04-20T14:57:58.739286+00:00
r6,-0.963989,0.01062,0.275269,2.746582,0.671387,-0.732422,2026-04-20T14:57:58.768724+00:00
r6,-0.964355,0.010986,0.276245,2.685547,0.671387,-0.671387,2026-04-20T14:57:58.798728+00:00
r6,-0.9646,0.009766,0.275391,2.807617,0.671387,-0.671387,2026-04-20T14:57:58.828287+00:00
r6,-0.96521,0.010498,0.275146,2.807617,0.549316,-0.671387,2026-04-20T14:57:58.858292+00:00
r6,-0.964966,0.01001,0.275635,2.746582,0.549316,-0.671387,2026-04-20T14:57:58.888332+00:00
r6,-0.964478,0.008911,0.275146,2.624512,0.671387,-0.549316,2026-04-20T14:57:58.917718+00:00
r6,-0.96521,0.010376,0.276611,2.807617,0.549316,-0.732422,2026-04-20T14:57:58.947758+00:00
r6,-0.965088,0.010254,0.275146,2.746582,0.610352,-0.610352,2026-04-20T14:57:58.977301+00:00
r6,-0.964355,0.009277,0.275391,2.624512,0.549316,-0.671387,2026-04-20T14:57:59.007750+00:00
r6,-0.965454,0.010376,0.275146,2.807617,0.671387,-0.610352,2026-04-20T14:57:59.036717+00:00
r6,-0.965088,0.009277,0.275635,2.685547,0.427246,-0.610352,2026-04-20T14:57:59.067335+00:00
r6,-0.964844,0.008911,0.276245,2.807617,0.610352,-0.732422,2026-04-20T14:57:59.097722+00:00
r6,-0.965088,0.010742,0.275269,2.807617,0.549316,-0.671387,2026-04-20T14:57:59.127793+00:00
r6,-0.964233,0.008789,0.275757,3.051758,0.671387,-0.610352,2026-04-20T14:57:59.157748+00:00
r6,-0.964722,0.010254,0.275879,2.746582,0.549316,-0.549316,2026-04-20T14:57:59.187354+00:00
r6,-0.965088,0.009644,0.276367,2.746582,0.671387,-0.610352,2026-04-20T14:57:59.217737+00:00
r6,-0.964844,0.008179,0.275635,3.051758,0.549316,-0.671387,2026-04-20T14:57:59.247808+00:00
r6,-0.963623,0.010254,0.275513,2.868652,0.549316,-0.671387,2026-04-20T14:57:59.278336+00:00
r6,-0.964355,0.008911,0.275391,2.746582,0.549316,-0.732422,2026-04-20T14:57:59.307786+00:00
r6,-0.965576,0.009888,0.275879,2.685547,0.671387,-0.610352,2026-04-20T14:57:59.338346+00:00
r6,-0.964844,0.01001,0.275391,2.807617,0.549316,-0.671387,2026-04-20T14:57:59.368759+00:00
r6,-0.965088,0.009033,0.276611,2.929688,0.671387,-0.610352,2026-04-20T14:57:59.398776+00:00
r6,-0.964478,0.009888,0.275635,2.868652,0.671387,-0.732422,2026-04-20T14:57:59.429378+00:00
r6,-0.963745,0.009766,0.274658,2.929688,0.610352,-0.549316,2026-04-20T14:57:59.459347+00:00
r6,-0.955933,0.00415,0.245972,2.807617,0.12207,-0.244141,2026-04-20T14:57:59.489782+00:00
r6,-0.946899,-0.000244,0.213867,2.990723,1.098633,-0.976562,2026-04-20T14:57:59.520832+00:00
r6,-1.075562,0.022949,0.376953,3.601074,1.77002,-0.366211,2026-04-20T14:57:59.551363+00:00
r6,-0.831055,0.001221,0.167236,3.662109,-0.732422,-3.479004,2026-04-20T14:57:59.582357+00:00
r6,-0.925659,-0.070435,0.186401,2.807617,-1.037598,-6.713867,2026-04-20T14:57:59.613791+00:00
r6,-1.010254,0.023315,0.335327,0.915527,3.723145,-4.455566,2026-04-20T14:57:59.643795+00:00
r6,-0.883789,0.03418,0.261597,5.065918,9.277344,-3.601074,2026-04-20T14:57:59.674364+00:00
r6,-0.910889,-0.032349,0.162109,1.586914,11.169434,-6.652832,2026-04-20T14:57:59.705379+00:00
r6,-0.947388,0.005371,0.283569,-2.441406,11.413574,-5.310059,2026-04-20T14:57:59.736613+00:00
r6,-1.024902,0.038696,0.367798,-0.366211,4.882812,-3.601074,2026-04-20T14:57:59.767383+00:00
r6,-0.991699,0.05542,0.205688,-1.220703,7.263184,-8.056641,2026-04-20T14:57:59.796444+00:00
r6,-0.861816,-0.021851,0.298218,-2.807617,7.93457,-10.253906,2026-04-20T14:57:59.827461+00:00
r6,-0.921753,-0.003052,0.265137,-1.464844,3.662109,-6.164551,2026-04-20T14:57:59.858842+00:00
r6,-1.042969,0.069702,0.358765,0.549316,7.385254,-5.981445,2026-04-20T14:57:59.888815+00:00
r6,-0.904663,0.028687,0.296875,-2.502441,8.361816,-10.009766,2026-04-20T14:57:59.919820+00:00
r6,-0.991089,0.058228,0.367432,-4.394531,13.305664,-9.399414,2026-04-20T14:57:59.949831+00:00
r6,-1.058105,0.0896,0.420288,-3.540039,10.742188,-8.300781,2026-04-20T14:57:59.980814+00:00
r6,-0.854736,0.018555,0.2323,-4.211426,15.441895,-10.314941,2026-04-20T14:58:00.011829+00:00
r6,-0.881226,0.050415,0.272339,-5.310059,14.282227,-10.620117,2026-04-20T14:58:00.041836+00:00
r6,-1.053833,0.09021,0.420288,-3.479004,13.427734,-8.117676,2026-04-20T14:58:00.071839+00:00
r6,-1.003418,0.119507,0.453979,-2.319336,14.587402,-6.04248,2026-04-20T14:58:00.101424+00:00
r6,-0.855591,0.037109,0.287231,-4.150391,18.798828,-8.605957,2026-04-20T14:58:00.130853+00:00
r6,-0.929199,0.124023,0.365601,-3.051758,14.709473,-7.263184,2026-04-20T14:58:00.160895+00:00
r6,-0.853027,0.106201,0.299927,-3.112793,21.057129,-9.033203,2026-04-20T14:58:00.192423+00:00
r6,-0.852661,0.089478,0.323486,-6.835937,19.958496,-9.521484,2026-04-20T14:58:00.223435+00:00
r6,-0.84314,0.106201,0.298584,-6.225586,22.277832,-8.117676,2026-04-20T14:58:00.252878+00:00
r6,-0.895386,0.151245,0.378174,2.502441,24.902344,-3.845215,2026-04-20T14:58:00.283634+00:00
r6,-0.780396,0.069092,0.257813,0.305176,26.062012,-4.02832,2026-04-20T14:58:00.312411+00:00
r6,-0.922485,0.12854,0.453247,-1.647949,22.888184,-2.929688,2026-04-20T14:58:00.342430+00:00
r6,-0.800293,0.105713,0.314453,-2.563477,26.123047,-3.295898,2026-04-20T14:58:00.371458+00:00
r6,-0.858276,0.140503,0.416016,-4.760742,23.254395,-4.699707,2026-04-20T14:58:00.400442+00:00
r6,-0.782959,0.108643,0.362305,-3.723145,25.512695,-2.13623,2026-04-20T14:58:00.430440+00:00
r6,-0.890869,0.169067,0.528809,-7.141113,24.841309,-5.065918,2026-04-20T14:58:00.460859+00:00
r6,-0.899048,0.108765,0.496216,-5.432129,28.747559,-3.723145,2026-04-20T14:58:00.491866+00:00
r6,-0.806396,0.156006,0.489258,-6.164551,28.991699,-1.464844,2026-04-20T14:58:00.522864+00:00
r6,-0.864014,0.193359,0.566162,-1.098633,30.334473,1.342773,2026-04-20T14:58:00.551442+00:00
r6,-0.858154,0.185425,0.55481,-2.807617,29.418945,-0.366211,2026-04-20T14:58:00.581447+00:00
r6,-0.799805,0.155762,0.528076,1.281738,26.672363,1.281738,2026-04-20T14:58:00.611481+00:00
r6,-0.789062,0.170288,0.535767,-4.455566,28.625488,2.01416,2026-04-20T14:58:00.641914+00:00
r6,-0.801514,0.232788,0.608154,-7.507324,29.174805,0.12207,2026-04-20T14:58:00.671896+00:00
r6,-0.734497,0.212402,0.558838,-4.089355,30.395508,4.455566,2026-04-20T14:58:00.701879+00:00
r6,-0.849609,0.135132,0.617187,-2.563477,25.268555,3.173828,2026-04-20T14:58:00.729891+00:00
r6,-0.746338,0.161377,0.557007,-1.647949,28.198242,3.540039,2026-04-20T14:58:00.758893+00:00
r6,-0.822388,0.218262,0.73645,-7.385254,26.428223,4.638672,2026-04-20T14:58:00.788470+00:00
r6,-0.706665,0.239502,0.602295,-5.126953,30.639648,5.310059,2026-04-20T14:58:00.818483+00:00
r6,-0.819336,0.195557,0.736206,2.746582,24.902344,7.69043,2026-04-20T14:58:00.846061+00:00
r6,-0.634521,0.233765,0.594238,3.967285,26.306152,6.286621,2026-04-20T14:58:00.876492+00:00
r6,-0.691406,0.21814,0.691772,-4.577637,20.629883,5.79834,2026-04-20T14:58:00.906905+00:00
r6,-0.701782,0.217529,0.680176,-2.685547,20.874023,6.408691,2026-04-20T14:58:00.936908+00:00
r6,-0.628784,0.210815,0.605225,-3.90625,22.705078,5.67627,2026-04-20T14:58:00.966483+00:00
r6,-0.673828,0.165771,0.643066,-4.150391,18.554687,5.065918,2026-04-20T14:58:00.996906+00:00
r6,-0.671875,0.228027,0.664795,-4.638672,22.766113,6.04248,2026-04-20T14:58:01.026913+00:00
r6,-0.709595,0.14917,0.733398,-1.342773,16.479492,4.821777,2026-04-20T14:58:01.056494+00:00
r6,-0.702271,0.179321,0.73645,-0.427246,15.258789,5.493164,2026-04-20T14:58:01.086495+00:00
r6,-0.582397,0.159302,0.511597,-2.441406,21.484375,6.408691,2026-04-20T14:58:01.116507+00:00
r6,-0.651733,0.213257,0.668091,-9.521484,18.371582,2.624512,2026-04-20T14:58:01.144959+00:00
r6,-0.654785,0.205811,0.740601,3.78418,14.526367,6.652832,2026-04-20T14:58:01.173503+00:00
r6,-0.597656,0.216064,0.631714,-2.319336,17.51709,4.455566,2026-04-20T14:58:01.203507+00:00
r6,-0.604126,0.218018,0.69519,-0.183105,14.587402,3.540039,2026-04-20T14:58:01.233520+00:00
r6,-0.637695,0.244751,0.738647,-0.366211,9.887695,0.488281,2026-04-20T14:58:01.263522+00:00
r6,-0.679199,0.19397,0.780151,-1.281738,8.666992,1.831055,2026-04-20T14:58:01.293932+00:00
r6,-0.626587,0.173828,0.802979,-2.01416,7.324219,2.929688,2026-04-20T14:58:01.323999+00:00
r6,-0.600098,0.205078,0.631104,-1.281738,11.474609,1.586914,2026-04-20T14:58:01.353952+00:00
r6,-0.602905,0.2052,0.770264,0.976562,8.483887,2.197266,2026-04-20T14:58:01.382953+00:00
r6,-0.597656,0.224854,0.6521,1.342773,6.713867,2.197266,2026-04-20T14:58:01.411607+00:00
r6,-0.604248,0.200073,0.733521,5.126953,5.92041,-0.976562,2026-04-20T14:58:01.441538+00:00
r6,-0.613037,0.191895,0.744629,3.173828,0.976562,0.793457,2026-04-20T14:58:01.471552+00:00
r6,-0.569702,0.142334,0.618652,0.366211,4.02832,0.793457,2026-04-20T14:58:01.501545+00:00
r6,-0.654419,0.218628,0.713989,-2.01416,1.953125,1.098633,2026-04-20T14:58:01.532016+00:00
r6,-0.647827,0.220947,0.782349,3.417969,-0.488281,0.488281,2026-04-20T14:58:01.561557+00:00
r6,-0.619507,0.210571,0.727539,2.563477,0.793457,0.183105,2026-04-20T14:58:01.591552+00:00
r6,-0.620728,0.199951,0.726685,2.197266,0.915527,0.183105,2026-04-20T14:58:01.621028+00:00
r6,-0.637695,0.193604,0.766357,2.746582,0.549316,-0.061035,2026-04-20T14:58:01.650966+00:00
r6,-0.621948,0.188965,0.735107,2.929688,0.366211,0.061035,2026-04-20T14:58:01.680006+00:00
r6,-0.625122,0.199951,0.719238,2.624512,0.732422,0.061035,2026-04-20T14:58:01.710005+00:00
r6,-0.62915,0.183228,0.74585,2.502441,0.915527,0.0,2026-04-20T14:58:01.739987+00:00
r6,-0.635986,0.189575,0.753906,2.868652,0.427246,0.061035,2026-04-20T14:58:01.768980+00:00
r6,-0.621948,0.193115,0.752441,2.929688,0.427246,0.0,2026-04-20T14:58:01.798560+00:00
r6,-0.616333,0.187744,0.768311,2.563477,1.281738,-0.305176,2026-04-20T14:58:01.828998+00:00
r6,-0.592651,0.187866,0.733032,2.01416,0.610352,-0.305176,2026-04-20T14:58:01.859576+00:00
r6,-0.665039,0.222656,0.795288,2.868652,-1.647949,0.305176,2026-04-20T14:58:01.890004+00:00
r6,-0.588135,0.184326,0.621582,0.366211,2.746582,-0.976562,2026-04-20T14:58:01.919587+00:00
r6,-0.62439,0.19812,0.859863,1.403809,-5.493164,-1.89209,2026-04-20T14:58:01.949590+00:00
r6,-0.626099,0.180054,0.594238,-3.051758,-2.868652,-1.098633,2026-04-20T14:58:01.980588+00:00
r6,-0.622803,0.192993,0.746216,2.990723,-4.943848,0.549316,2026-04-20T14:58:02.010997+00:00
r6,-0.629517,0.194336,0.748657,6.04248,-2.929688,2.380371,2026-04-20T14:58:02.041595+00:00
r6,-0.602661,0.216797,0.610596,-4.638672,0.915527,-1.098633,2026-04-20T14:58:02.072594+00:00
r6,-0.614746,0.243652,0.740723,4.394531,-2.197266,-2.13623,2026-04-20T14:58:02.103608+00:00
r6,-0.603638,0.190552,0.720703,8.911133,-8.178711,-3.845215,2026-04-20T14:58:02.134593+00:00
r6,-0.675415,0.198242,0.735229,7.995605,-1.342773,-0.915527,2026-04-20T14:58:02.164634+00:00
r6,-0.611694,0.230469,0.805664,3.417969,-1.403809,-0.915527,2026-04-20T14:58:02.195642+00:00
r6,-0.640381,0.218872,0.648193,5.737305,-4.760742,-2.075195,2026-04-20T14:58:02.226600+00:00
r6,-0.622559,0.188354,0.740112,2.502441,-2.624512,-2.929688,2026-04-20T14:58:02.257037+00:00
r6,-0.64209,0.188843,0.713867,5.92041,-8.056641,-1.89209,2026-04-20T14:58:02.288029+00:00
r6,-0.683594,0.192139,0.752686,0.061035,-5.615234,-4.821777,2026-04-20T14:58:02.319066+00:00
r6,-0.652222,0.187256,0.774536,1.953125,-7.263184,-4.211426,2026-04-20T14:58:02.349669+00:00
r6,-0.637329,0.215088,0.659668,2.380371,-6.286621,-2.746582,2026-04-20T14:58:02.378622+00:00
r6,-0.673828,0.206177,0.748779,5.981445,-4.638672,-2.990723,2026-04-20T14:58:02.409039+00:00
r6,-0.62146,0.215454,0.679443,7.202148,-6.164551,-1.342773,2026-04-20T14:58:02.439043+00:00
r6,-0.702759,0.255371,0.705566,7.568359,-6.408691,-3.662109,2026-04-20T14:58:02.468623+00:00
r6,-0.633667,0.174561,0.668213,4.211426,-5.737305,-4.150391,2026-04-20T14:58:02.499050+00:00
r6,-0.654541,0.164429,0.653931,2.197266,-7.019043,-4.516602,2026-04-20T14:58:02.529615+00:00
r6,-0.71582,0.19458,0.692627,4.882812,-7.263184,-4.577637,2026-04-20T14:58:02.558053+00:00
r6,-0.637207,0.191528,0.650269,5.92041,-4.882812,-3.601074,2026-04-20T14:58:02.587057+00:00
r6,-0.660522,0.213257,0.682129,3.967285,-6.469727,-3.90625,2026-04-20T14:58:02.617061+00:00
r6,-0.707886,0.222778,0.728149,1.037598,-7.629395,-4.333496,2026-04-20T14:58:02.648092+00:00
r6,-0.654175,0.220581,0.676147,0.061035,-7.202148,-4.150391,2026-04-20T14:58:02.678067+00:00
r6,-0.673828,0.253662,0.714111,1.647949,-9.155273,-3.601074,2026-04-20T14:58:02.707661+00:00
r6,-0.673828,0.177612,0.615112,12.390137,-9.94873,-1.89209,2026-04-20T14:58:02.736647+00:00
r6,-0.646362,0.254517,0.653442,6.04248,-8.972168,-3.540039,2026-04-20T14:58:02.765642+00:00
r6,-0.696655,0.225098,0.700806,4.821777,-11.657715,-3.662109,2026-04-20T14:58:02.796078+00:00
r6,-0.731934,0.234253,0.69104,6.103516,-12.207031,-3.173828,2026-04-20T14:58:02.827076+00:00
r6,-0.706299,0.221313,0.697998,2.319336,-12.023926,-3.356934,2026-04-20T14:58:02.856651+00:00
r6,-0.724731,0.258545,0.576782,7.568359,-10.864258,-3.295898,2026-04-20T14:58:02.886732+00:00
r6,-0.73877,0.229858,0.676147,10.009766,-10.375977,-3.112793,2026-04-20T14:58:02.916697+00:00
r6,-0.628418,0.250732,0.56189,1.525879,-6.896973,-3.540039,2026-04-20T14:58:02.945094+00:00
r6,-0.741943,0.29541,0.67395,-2.807617,-15.563965,-3.051758,2026-04-20T14:58:02.974675+00:00
r6,-0.753296,0.172363,0.605347,4.638672,-16.296387,-4.394531,2026-04-20T14:58:03.003096+00:00
r6,-0.709595,0.181519,0.581665,8.605957,-15.319824,-2.929688,2026-04-20T14:58:03.033101+00:00
r6,-0.788818,0.23584,0.640869,8.239746,-13.122559,-1.586914,2026-04-20T14:58:03.064134+00:00
r6,-0.740112,0.22522,0.577515,2.929688,-9.033203,-3.479004,2026-04-20T14:58:03.089145+00:00
r6,-0.681396,0.183716,0.563599,2.746582,-10.314941,-1.525879,2026-04-20T14:58:03.119107+00:00
r6,-0.766113,0.271606,0.571167,0.427246,-13.671875,-3.417969,2026-04-20T14:58:03.149112+00:00
r6,-0.791748,0.215576,0.607056,5.554199,-11.59668,-2.380371,2026-04-20T14:58:03.179695+00:00
r6,-0.737061,0.245483,0.576904,4.211426,-12.512207,-2.258301,2026-04-20T14:58:03.210168+00:00
r6,-0.811646,0.23584,0.64502,7.8125,-16.235352,-0.976562,2026-04-20T14:58:03.240149+00:00
r6,-0.785767,0.134399,0.520874,12.023926,-15.563965,-0.976562,2026-04-20T14:58:03.269720+00:00
r6,-0.765625,0.227905,0.602783,5.737305,-14.404297,-2.319336,2026-04-20T14:58:03.300121+00:00
r6,-0.759033,0.276001,0.538086,1.77002,-12.573242,-0.427246,2026-04-20T14:58:03.329713+00:00
r6,-0.811768,0.254028,0.56311,-2.624512,-13.549805,-1.464844,2026-04-20T14:58:03.361123+00:00
r6,-0.806396,0.268677,0.56311,9.399414,-14.160156,0.793457,2026-04-20T14:58:03.391138+00:00
r6,-0.729126,0.193848,0.479126,11.657715,-12.329102,-0.549316,2026-04-20T14:58:03.421721+00:00
r6,-0.815796,0.219482,0.496216,8.117676,-13.48877,2.319336,2026-04-20T14:58:03.451739+00:00
r6,-0.797729,0.218872,0.54126,7.202148,-13.427734,-0.305176,2026-04-20T14:58:03.482726+00:00
r6,-0.801514,0.223999,0.497314,7.93457,-11.413574,1.77002,2026-04-20T14:58:03.513137+00:00
r6,-0.836548,0.215332,0.493408,15.319824,-10.925293,2.258301,2026-04-20T14:58:03.543720+00:00
r6,-0.820679,0.151855,0.535645,10.498047,-10.070801,3.78418,2026-04-20T14:58:03.573758+00:00
r6,-0.790405,0.211304,0.474854,10.559082,-12.329102,4.882812,2026-04-20T14:58:03.602737+00:00
r6,-0.869141,0.155029,0.485229,15.258789,-11.108398,4.333496,2026-04-20T14:58:03.631190+00:00
r6,-0.837891,0.160278,0.457275,16.845703,-10.986328,4.821777,2026-04-20T14:58:03.661801+00:00
r6,-0.83374,0.165283,0.474487,7.568359,-10.070801,1.953125,2026-04-20T14:58:03.691750+00:00
r6,-0.859131,0.179565,0.536621,12.817383,-12.573242,3.78418,2026-04-20T14:58:03.720736+00:00
r6,-0.900879,0.131592,0.468018,16.296387,-12.878418,5.737305,2026-04-20T14:58:03.750753+00:00
r6,-0.841675,0.130615,0.503784,14.160156,-12.023926,5.67627,2026-04-20T14:58:03.781283+00:00
r6,-0.850708,0.113037,0.45166,13.916016,-10.620117,3.234863,2026-04-20T14:58:03.810748+00:00
r6,-0.893311,0.153076,0.448486,15.380859,-9.216309,1.159668,2026-04-20T14:58:03.840188+00:00
r6,-0.839355,0.113525,0.408813,19.104004,-8.239746,3.479004,2026-04-20T14:58:03.870190+00:00
r6,-0.876465,0.08252,0.430542,17.028809,-9.94873,1.281738,2026-04-20T14:58:03.900189+00:00
r6,-0.965576,0.130127,0.503418,15.563965,-11.535645,1.159668,2026-04-20T14:58:03.930790+00:00
r6,-0.873535,0.125732,0.432983,17.578125,-4.516602,-1.403809,2026-04-20T14:58:03.961772+00:00
r6,-0.885986,0.103149,0.463013,18.920898,-9.277344,0.610352,2026-04-20T14:58:03.991256+00:00
r6,-0.922363,0.046631,0.419556,16.235352,-8.117676,-0.976562,2026-04-20T14:58:04.022212+00:00
r6,-0.871826,0.079712,0.412109,17.822266,-5.371094,-0.610352,2026-04-20T14:58:04.051808+00:00
r6,-0.879517,0.081055,0.446289,16.540527,-7.751465,0.061035,2026-04-20T14:58:04.081575+00:00
r6,-0.908203,0.064453,0.388306,15.625,-7.629395,-0.671387,2026-04-20T14:58:04.112196+00:00
r6,-0.93689,0.130737,0.478638,14.404297,-7.263184,-0.488281,2026-04-20T14:58:04.141215+00:00
r6,-0.85144,0.089844,0.425049,19.592285,-5.371094,0.793457,2026-04-20T14:58:04.170201+00:00
r6,-0.913086,0.067017,0.432861,15.319824,-5.981445,-1.037598,2026-04-20T14:58:04.201218+00:00
r6,-0.937866,0.077759,0.458618,18.554687,-6.164551,1.708984,2026-04-20T14:58:04.231816+00:00
r6,-0.853516,0.013306,0.408691,16.479492,-4.638672,0.183105,2026-04-20T14:58:04.262221+00:00
r6,-0.926025,0.065308,0.430542,17.028809,-4.394531,2.685547,2026-04-20T14:58:04.292851+00:00
r6,-0.969604,0.063843,0.45874,16.601562,-5.615234,1.953125,2026-04-20T14:58:04.323225+00:00
r6,-0.916016,0.048462,0.426636,13.48877,-2.319336,-2.258301,2026-04-20T14:58:04.353856+00:00
r6,-0.846436,0.026367,0.384521,15.74707,-4.394531,1.281738,2026-04-20T14:58:04.383221+00:00
r6,-0.934448,0.016846,0.409424,9.887695,-6.408691,-2.01416,2026-04-20T14:58:04.413812+00:00
r6,-0.918213,-0.000244,0.412964,12.756348,-5.981445,0.244141,2026-04-20T14:58:04.444815+00:00
r6,-0.868042,-0.002075,0.373413,12.573242,-5.493164,1.464844,2026-04-20T14:58:04.475816+00:00
r6,-0.951172,0.009155,0.42334,10.437012,-5.371094,1.159668,2026-04-20T14:58:04.506283+00:00
r6,-0.904297,0.011963,0.361206,9.58252,-1.89209,0.061035,2026-04-20T14:58:04.536240+00:00
r6,-0.908325,0.019287,0.382324,9.460449,-1.647949,-0.183105,2026-04-20T14:58:04.564816+00:00
r6,-0.921753,0.003906,0.422119,12.145996,-5.249023,3.356934,2026-04-20T14:58:04.593852+00:00
r6,-0.891724,0.019287,0.33728,4.943848,-5.92041,-1.525879,2026-04-20T14:58:04.622240+00:00
r6,-0.933228,-0.018188,0.383057,6.103516,-3.295898,-1.037598,2026-04-20T14:58:04.652832+00:00
r6,-0.928711,0.041992,0.429321,7.324219,-4.272461,0.915527,2026-04-20T14:58:04.679854+00:00
r6,-0.912842,0.015503,0.331787,5.79834,-3.051758,-1.647949,2026-04-20T14:58:04.710255+00:00
r6,-0.972168,0.001709,0.437866,6.164551,-3.601074,1.831055,2026-04-20T14:58:04.739838+00:00
r6,-0.931641,0.009766,0.456177,12.390137,-2.441406,2.563477,2026-04-20T14:58:04.769828+00:00
r6,-0.936523,-0.001465,0.345459,2.624512,-3.417969,-4.150391,2026-04-20T14:58:04.800865+00:00
r6,-0.933472,-0.008911,0.353882,5.432129,-1.953125,-1.342773,2026-04-20T14:58:04.831847+00:00
r6,-0.936035,-0.019653,0.395386,4.760742,-1.647949,-1.77002,2026-04-20T14:58:04.862266+00:00
r6,-0.984375,-0.008179,0.403442,4.821777,-2.075195,-0.305176,2026-04-20T14:58:04.893268+00:00
r6,-0.927612,0.007446,0.360229,2.380371,1.342773,-0.854492,2026-04-20T14:58:04.923269+00:00
r6,-0.889893,0.019653,0.358521,2.319336,1.098633,-1.098633,2026-04-20T14:58:04.953277+00:00
r6,-0.942017,0.016235,0.40332,3.234863,0.0,-0.427246,2026-04-20T14:58:04.983281+00:00
r6,-0.922485,0.025757,0.390869,2.746582,0.793457,-0.671387,2026-04-20T14:58:05.012275+00:00
r6,-0.91748,0.012939,0.37915,2.929688,0.366211,-0.427246,2026-04-20T14:58:05.042899+00:00
r6,-0.929932,0.008301,0.380371,2.990723,0.610352,-0.915527,2026-04-20T14:58:05.072282+00:00
r6,-0.911499,0.016968,0.377686,2.502441,0.671387,-0.671387,2026-04-20T14:58:05.101282+00:00
r6,-0.939087,0.014771,0.396729,2.868652,0.427246,-0.610352,2026-04-20T14:58:05.130867+00:00
r6,-0.921997,0.012695,0.37915,2.685547,0.488281,-0.854492,2026-04-20T14:58:05.160314+00:00
r6,-0.917603,0.010986,0.370483,2.624512,0.488281,-0.793457,2026-04-20T14:58:05.188893+00:00
r6,-0.92981,0.008545,0.387207,2.563477,0.610352,-1.037598,2026-04-20T14:58:05.217890+00:00
r6,-0.928589,0.012329,0.390991,0.732422,-0.061035,-2.319336,2026-04-20T14:58:05.248092+00:00
r6,-0.919312,0.014893,0.377197,5.432129,1.159668,1.037598,2026-04-20T14:58:05.277889+00:00
r6,-0.920776,0.012451,0.368774,0.915527,0.244141,-1.89209,2026-04-20T14:58:05.307888+00:00
r6,-0.938721,0.021484,0.370483,4.150391,1.159668,0.061035,2026-04-20T14:58:05.337897+00:00
r6,-0.936523,0.005371,0.403076,2.685547,0.183105,-0.854492,2026-04-20T14:58:05.367902+00:00
r6,-0.931885,0.020752,0.391357,1.647949,0.305176,-1.586914,2026-04-20T14:58:05.397896+00:00
r6,-0.911621,0.011353,0.375,4.882812,1.037598,0.671387,2026-04-20T14:58:05.427898+00:00
r6,-0.94104,0.023315,0.394775,0.183105,-0.12207,-2.563477,2026-04-20T14:58:05.457919+00:00
r6,-0.904785,0.019653,0.373291,6.896973,0.976562,0.671387,2026-04-20T14:58:05.486385+00:00
r6,-0.931396,0.021362,0.376831,1.281738,0.12207,-1.708984,2026-04-20T14:58:05.515385+00:00
r6,-0.911865,0.005615,0.376465,5.187988,1.464844,0.671387,2026-04-20T14:58:05.544345+00:00
r6,-0.929565,0.00293,0.378784,1.159668,0.061035,-1.89209,2026-04-20T14:58:05.574940+00:00
r6,-0.939941,0.01709,0.394409,1.220703,1.464844,0.793457,2026-04-20T14:58:05.603343+00:00
r6,-0.930542,-0.001343,0.396362,1.647949,-0.12207,-1.831055,2026-04-20T14:58:05.633975+00:00
r6,-0.942871,0.021606,0.391235,1.342773,0.305176,-1.831055,2026-04-20T14:58:05.663371+00:00
r6,-0.908447,0.015747,0.375366,4.943848,1.037598,0.671387,2026-04-20T14:58:05.692933+00:00
r6,-0.929687,0.021973,0.393799,-0.12207,-0.183105,-2.685547,2026-04-20T14:58:05.723933+00:00
r6,-0.903931,0.0177,0.368042,7.080078,1.77002,2.13623,2026-04-20T14:58:05.753357+00:00
r6,-0.928223,0.020142,0.373535,0.976562,0.183105,-1.89209,2026-04-20T14:58:05.782361+00:00
r6,-0.913818,0.012085,0.380493,5.67627,1.525879,1.220703,2026-04-20T14:58:05.811930+00:00
r6,-0.932495,0.006226,0.382935,1.403809,0.0,-1.647949,2026-04-20T14:58:05.842388+00:00
r6,-0.937378,0.016479,0.398193,-0.12207,0.793457,-0.915527,2026-04-20T14:58:05.872372+00:00
r6,-0.927002,0.006592,0.384644,2.868652,0.427246,-0.732422,2026-04-20T14:58:05.902370+00:00
r6,-0.920776,0.012695,0.379395,2.746582,0.732422,-0.915527,2026-04-20T14:58:05.932377+00:00
r6,-0.91626,0.012573,0.374023,2.685547,0.610352,-0.854492,2026-04-20T14:58:05.961374+00:00
r6,-0.92627,0.004272,0.383911,2.807617,0.610352,-0.793457,2026-04-20T14:58:05.992012+00:00
r6,-0.921387,0.014404,0.384399,2.807617,0.549316,-0.793457,2026-04-20T14:58:06.022382+00:00
r6,-0.928955,0.011353,0.386353,2.746582,0.549316,-0.671387,2026-04-20T14:58:06.052384+00:00
r6,-0.918945,0.017334,0.38147,2.929688,0.732422,-0.671387,2026-04-20T14:58:06.081374+00:00
r6,-0.92981,0.011841,0.383545,2.746582,0.549316,-0.732422,2026-04-20T14:58:06.111968+00:00
r6,-0.918091,0.01709,0.379639,2.929688,0.671387,-0.671387,2026-04-20T14:58:06.141391+00:00
r6,-0.929321,0.013916,0.386597,2.807617,0.488281,-0.671387,2026-04-20T14:58:06.170975+00:00
r6,-0.921021,0.016846,0.38147,2.563477,0.793457,-0.854492,2026-04-20T14:58:06.201013+00:00
r6,-0.925537,0.01355,0.381958,2.868652,0.610352,-0.732422,2026-04-20T14:58:06.230572+00:00
r6,-0.923706,0.013306,0.382202,2.868652,0.549316,-0.732422,2026-04-20T14:58:06.261461+00:00
r6,-0.921265,0.013672,0.38147,2.685547,0.488281,-0.793457,2026-04-20T14:58:06.290407+00:00
r6,-0.928467,0.013672,0.382324,2.990723,0.793457,-0.671387,2026-04-20T14:58:06.319994+00:00
r6,-0.918213,0.013672,0.380371,2.746582,0.610352,-0.671387,2026-04-20T14:58:06.350411+00:00
r6,-0.930786,0.016602,0.383667,2.685547,0.549316,-0.732422,2026-04-20T14:58:06.378998+00:00
r6,-0.921753,0.015503,0.381226,2.624512,0.671387,-0.793457,2026-04-20T14:58:06.409405+00:00
r6,-0.926392,0.011353,0.384888,2.868652,0.427246,-0.732422,2026-04-20T14:58:06.439420+00:00
r6,-0.923584,0.015259,0.382935,2.807617,0.549316,-0.732422,2026-04-20T14:58:06.469443+00:00
r6,-0.923462,0.014404,0.380249,2.807617,0.549316,-0.671387,2026-04-20T14:58:06.500030+00:00
r6,-0.926758,0.012451,0.383423,2.746582,0.488281,-0.732422,2026-04-20T14:58:06.530431+00:00
r6,-0.924438,0.019409,0.382324,2.929688,0.610352,-0.671387,2026-04-20T14:58:06.560995+00:00
r6,-0.92688,0.014771,0.383179,2.807617,0.610352,-0.732422,2026-04-20T14:58:06.590433+00:00
r6,-0.921509,0.01416,0.381104,2.746582,0.610352,-0.732422,2026-04-20T14:58:06.620451+00:00
r6,-0.928101,0.013184,0.38269,2.807617,0.793457,-0.732422,2026-04-20T14:58:06.650437+00:00
r6,-0.922974,0.015747,0.380737,2.746582,0.732422,-0.793457,2026-04-20T14:58:06.679445+00:00
r6,-0.925537,0.011475,0.382935,2.807617,0.549316,-0.671387,2026-04-20T14:58:06.709423+00:00
